"","index","PID","n_red","outcome","col_reported","col_picked","pp_lied","RT_rating","win_lose_tie","suspicion_rating","trial","n_blue","e_v","normed_signed_e_v","normed_unsigned_e_v","cs_signed_e_v","normed_cs_signed_e_v","cs_unsigned_e_v","normed_cs_unsigned_e_v","n_reported_colour_opp","n_consec_colour","normed_signed_colour_count","normed_unsigned_colour_count","outcome_same_as_pick","subject_lied","t_cond","signed_n_consec_colour","suspicion","lied","subj_red_pick"
"1",0,"561ec90aed6e5a000fc7e8d3",6,1,-1,-1,TRUE,4424,"loss",0.6,1,1,0.857142857142857,1,1,0.857142857142857,0.0662983425414365,0.857142857142857,0.0355029585798817,1,1,0.272727272727273,0.2,FALSE,FALSE,6,1,TRUE,FALSE,TRUE
"2",1,"561ec90aed6e5a000fc7e8d3",5,1,1,-1,TRUE,3942,"tie",0.4,2,2,0.714285714285714,0.916666666666667,0.857142857142857,1.57142857142857,0.0939226519337017,1.57142857142857,0.0502958579881657,2,2,0.363636363636364,0.3,FALSE,TRUE,5,2,TRUE,TRUE,TRUE
"3",2,"561ec90aed6e5a000fc7e8d3",5,1,1,-1,TRUE,2781,"tie",0.6,3,2,0.714285714285714,0.916666666666667,0.857142857142857,2.28571428571429,0.121546961325967,2.28571428571429,0.0650887573964497,3,3,0.454545454545455,0.4,FALSE,TRUE,5,3,TRUE,TRUE,TRUE
"4",3,"561ec90aed6e5a000fc7e8d3",5,-1,1,1,FALSE,4358,"win",0.4,4,2,-0.285714285714286,0.333333333333333,0.428571428571429,2,0.110497237569061,2.57142857142857,0.0710059171597633,1,1,0.0909090909090909,0.2,FALSE,FALSE,-5,-1,FALSE,FALSE,FALSE
"5",4,"561ec90aed6e5a000fc7e8d3",1,1,1,1,FALSE,3164,"tie",0.4,5,6,0.142857142857143,0.583333333333333,0.285714285714286,2.14285714285714,0.116022099447514,2.71428571428571,0.0739644970414201,4,1,0.272727272727273,0.2,TRUE,FALSE,1,1,FALSE,FALSE,FALSE
"6",5,"561ec90aed6e5a000fc7e8d3",5,1,1,-1,TRUE,3149,"tie",0.6,6,2,0.714285714285714,0.916666666666667,0.857142857142857,2.85714285714286,0.143646408839779,3.42857142857143,0.0887573964497042,5,2,0.363636363636364,0.3,FALSE,TRUE,5,2,TRUE,TRUE,TRUE
"7",6,"561ec90aed6e5a000fc7e8d3",1,1,1,1,FALSE,3140,"tie",0.2,7,6,0.142857142857143,0.583333333333333,0.285714285714286,3,0.149171270718232,3.57142857142857,0.0917159763313609,6,3,0.454545454545455,0.4,TRUE,FALSE,1,3,FALSE,FALSE,FALSE
"8",7,"561ec90aed6e5a000fc7e8d3",3,1,1,1,TRUE,2529,"tie",0.2,8,4,0.428571428571429,0.75,0.571428571428572,3.42857142857143,0.165745856353591,4,0.100591715976331,7,4,0.545454545454545,0.5,TRUE,FALSE,3,4,TRUE,FALSE,FALSE
"9",8,"561ec90aed6e5a000fc7e8d3",4,-1,1,1,FALSE,2402,"win",0.4,9,3,-0.428571428571429,0.25,0.571428571428572,3,0.149171270718232,4.42857142857143,0.109467455621302,2,1,0.0909090909090909,0.2,FALSE,FALSE,-4,-1,FALSE,FALSE,FALSE
"10",9,"561ec90aed6e5a000fc7e8d3",3,-1,1,1,FALSE,2953,"win",0.4,10,4,-0.571428571428571,0.166666666666667,0.714285714285714,2.42857142857143,0.12707182320442,5,0.121301775147929,3,2,0,0.3,FALSE,FALSE,-3,-2,FALSE,FALSE,FALSE
"11",10,"561ec90aed6e5a000fc7e8d3",6,1,-1,-1,TRUE,3274,"loss",0.8,11,1,0.857142857142857,1,1,3.28571428571429,0.160220994475138,5.85714285714286,0.13905325443787,8,1,0.272727272727273,0.2,FALSE,FALSE,6,1,TRUE,FALSE,TRUE
"12",11,"561ec90aed6e5a000fc7e8d3",4,-1,1,-1,FALSE,2428,"win",0.4,12,3,-0.428571428571429,0.25,0.571428571428572,2.85714285714286,0.143646408839779,6.28571428571429,0.14792899408284,4,1,0.0909090909090909,0.2,TRUE,TRUE,-4,-1,FALSE,TRUE,TRUE
"13",12,"561ec90aed6e5a000fc7e8d3",2,1,1,1,FALSE,3185,"tie",0.4,13,5,0.285714285714286,0.666666666666667,0.428571428571429,3.14285714285714,0.154696132596685,6.57142857142857,0.153846153846154,9,1,0.272727272727273,0.2,TRUE,FALSE,2,1,FALSE,FALSE,FALSE
"14",13,"561ec90aed6e5a000fc7e8d3",5,1,1,-1,TRUE,2768,"tie",0.6,14,2,0.714285714285714,0.916666666666667,0.857142857142857,3.85714285714286,0.18232044198895,7.28571428571429,0.168639053254438,10,2,0.363636363636364,0.3,FALSE,TRUE,5,2,TRUE,TRUE,TRUE
"15",14,"561ec90aed6e5a000fc7e8d3",6,1,1,-1,TRUE,3785,"tie",1,15,1,0.857142857142857,1,1,4.71428571428572,0.215469613259669,8.14285714285714,0.186390532544379,11,3,0.454545454545455,0.4,FALSE,TRUE,6,3,TRUE,TRUE,TRUE
"16",15,"561ec90aed6e5a000fc7e8d3",5,1,1,1,FALSE,2396,"tie",0.6,16,2,0.714285714285714,0.916666666666667,0.857142857142857,5.42857142857143,0.243093922651934,8.85714285714286,0.201183431952663,12,4,0.545454545454545,0.5,TRUE,FALSE,5,4,FALSE,FALSE,FALSE
"17",16,"561ec90aed6e5a000fc7e8d3",6,1,1,-1,TRUE,2316,"tie",1,17,1,0.857142857142857,1,1,6.28571428571429,0.276243093922652,9.71428571428572,0.218934911242604,13,5,0.636363636363636,0.6,FALSE,TRUE,6,5,TRUE,TRUE,TRUE
"18",17,"561ec90aed6e5a000fc7e8d3",4,1,1,-1,FALSE,2896,"tie",0.6,18,3,0.571428571428571,0.833333333333333,0.714285714285714,6.85714285714286,0.298342541436464,10.2857142857143,0.230769230769231,14,6,0.727272727272727,0.7,FALSE,TRUE,4,6,FALSE,TRUE,TRUE
"19",18,"561ec90aed6e5a000fc7e8d3",3,-1,1,1,FALSE,2146,"win",0.4,19,4,-0.571428571428571,0.166666666666667,0.714285714285714,6.28571428571429,0.276243093922652,10.8571428571429,0.242603550295858,5,1,0.0909090909090909,0.2,FALSE,FALSE,-3,-1,FALSE,FALSE,FALSE
"20",19,"561ec90aed6e5a000fc7e8d3",5,-1,1,-1,FALSE,2690,"win",0.4,20,2,-0.285714285714286,0.333333333333333,0.428571428571429,6,0.265193370165746,11.1428571428571,0.248520710059172,6,2,0,0.3,TRUE,TRUE,-5,-2,FALSE,TRUE,TRUE
"21",20,"561ec90aed6e5a000fc7e8d3",5,1,1,-1,TRUE,2812,"tie",0.6,21,2,0.714285714285714,0.916666666666667,0.857142857142857,6.71428571428572,0.292817679558011,11.8571428571429,0.263313609467456,15,1,0.272727272727273,0.2,FALSE,TRUE,5,1,TRUE,TRUE,TRUE
"22",21,"561ec90aed6e5a000fc7e8d3",2,1,1,1,FALSE,2362,"tie",0.2,22,5,0.285714285714286,0.666666666666667,0.428571428571429,7,0.303867403314917,12.1428571428571,0.269230769230769,16,2,0.363636363636364,0.3,TRUE,FALSE,2,2,FALSE,FALSE,FALSE
"23",22,"561ec90aed6e5a000fc7e8d3",4,1,1,1,TRUE,2689,"tie",0.6,23,3,0.571428571428571,0.833333333333333,0.714285714285714,7.57142857142857,0.325966850828729,12.7142857142857,0.281065088757396,17,3,0.454545454545455,0.4,TRUE,FALSE,4,3,TRUE,FALSE,FALSE
"24",23,"561ec90aed6e5a000fc7e8d3",5,1,1,-1,TRUE,2265,"tie",0.8,24,2,0.714285714285714,0.916666666666667,0.857142857142857,8.28571428571429,0.353591160220995,13.4285714285714,0.29585798816568,18,4,0.545454545454545,0.5,FALSE,TRUE,5,4,TRUE,TRUE,TRUE
"25",24,"561ec90aed6e5a000fc7e8d3",6,1,1,-1,TRUE,2314,"tie",1,25,1,0.857142857142857,1,1,9.14285714285714,0.386740331491713,14.2857142857143,0.313609467455621,19,5,0.636363636363636,0.6,FALSE,TRUE,6,5,TRUE,TRUE,TRUE
"26",25,"561ec90aed6e5a000fc7e8d3",1,1,1,1,FALSE,2546,"tie",0.2,26,6,0.142857142857143,0.583333333333333,0.285714285714286,9.28571428571429,0.392265193370166,14.4285714285714,0.316568047337278,20,6,0.727272727272727,0.7,TRUE,FALSE,1,6,FALSE,FALSE,FALSE
"27",26,"561ec90aed6e5a000fc7e8d3",6,1,1,1,TRUE,2400,"tie",0.8,27,1,0.857142857142857,1,1,10.1428571428571,0.425414364640884,15.2857142857143,0.334319526627219,21,7,0.818181818181818,0.8,TRUE,FALSE,6,7,TRUE,FALSE,FALSE
"28",27,"561ec90aed6e5a000fc7e8d3",3,1,1,-1,FALSE,2210,"tie",0.4,28,4,0.428571428571429,0.75,0.571428571428572,10.5714285714286,0.441988950276243,15.7142857142857,0.343195266272189,22,8,0.909090909090909,0.9,FALSE,TRUE,3,8,FALSE,TRUE,TRUE
"29",28,"561ec90aed6e5a000fc7e8d3",6,1,1,-1,TRUE,2339,"tie",0.6,29,1,0.857142857142857,1,1,11.4285714285714,0.475138121546962,16.5714285714286,0.36094674556213,23,9,1,1,FALSE,TRUE,6,9,TRUE,TRUE,TRUE
"30",29,"561ec90aed6e5a000fc7e8d3",4,-1,1,-1,FALSE,2530,"win",0.4,30,3,-0.428571428571429,0.25,0.571428571428572,11,0.458563535911602,17,0.369822485207101,7,1,0.0909090909090909,0.2,TRUE,TRUE,-4,-1,FALSE,TRUE,TRUE
"31",30,"561ec90aed6e5a000fc7e8d3",5,1,1,-1,TRUE,2521,"tie",0.6,31,2,0.714285714285714,0.916666666666667,0.857142857142857,11.7142857142857,0.486187845303867,17.7142857142857,0.384615384615385,24,1,0.272727272727273,0.2,FALSE,TRUE,5,1,TRUE,TRUE,TRUE
"32",31,"561ec90aed6e5a000fc7e8d3",1,1,1,1,FALSE,2442,"tie",0.2,32,6,0.142857142857143,0.583333333333333,0.285714285714286,11.8571428571429,0.491712707182321,17.8571428571429,0.387573964497041,25,2,0.363636363636364,0.3,TRUE,FALSE,1,2,FALSE,FALSE,FALSE
"33",32,"561ec90aed6e5a000fc7e8d3",6,-1,1,-1,FALSE,2339,"win",0.2,33,1,-0.142857142857143,0.416666666666667,0.285714285714286,11.7142857142857,0.486187845303867,18,0.390532544378698,8,1,0.0909090909090909,0.2,TRUE,TRUE,-6,-1,FALSE,TRUE,TRUE
"34",33,"561ec90aed6e5a000fc7e8d3",5,1,1,1,TRUE,2475,"tie",0.6,34,2,0.714285714285714,0.916666666666667,0.857142857142857,12.4285714285714,0.513812154696133,18.7142857142857,0.405325443786982,26,1,0.272727272727273,0.2,TRUE,FALSE,5,1,TRUE,FALSE,FALSE
"35",34,"561ec90aed6e5a000fc7e8d3",5,1,1,-1,TRUE,2217,"tie",0.6,35,2,0.714285714285714,0.916666666666667,0.857142857142857,13.1428571428571,0.541436464088398,19.4285714285714,0.420118343195266,27,2,0.363636363636364,0.3,FALSE,TRUE,5,2,TRUE,TRUE,TRUE
"36",35,"561ec90aed6e5a000fc7e8d3",2,-1,1,-1,TRUE,2147,"win",0.2,36,5,-0.714285714285714,0.0833333333333334,0.857142857142857,12.4285714285714,0.513812154696133,20.1428571428571,0.43491124260355,9,1,0.0909090909090909,0.2,TRUE,TRUE,-2,-1,TRUE,TRUE,TRUE
"37",36,"561ec90aed6e5a000fc7e8d3",5,1,1,-1,TRUE,2184,"tie",0.6,37,2,0.714285714285714,0.916666666666667,0.857142857142857,13.1428571428571,0.541436464088398,20.8571428571429,0.449704142011834,28,1,0.272727272727273,0.2,FALSE,TRUE,5,1,TRUE,TRUE,TRUE
"38",37,"561ec90aed6e5a000fc7e8d3",2,1,1,-1,FALSE,4388,"tie",0.4,38,5,0.285714285714286,0.666666666666667,0.428571428571429,13.4285714285714,0.552486187845304,21.1428571428571,0.455621301775148,29,2,0.363636363636364,0.3,FALSE,TRUE,2,2,FALSE,TRUE,TRUE
"39",38,"561ec90aed6e5a000fc7e8d3",2,-1,1,1,FALSE,2690,"win",0.4,39,5,-0.714285714285714,0.0833333333333334,0.857142857142857,12.7142857142857,0.524861878453039,21.8571428571429,0.470414201183432,10,1,0.0909090909090909,0.2,FALSE,FALSE,-2,-1,FALSE,FALSE,FALSE
"40",39,"561ec90aed6e5a000fc7e8d3",5,1,1,1,TRUE,5018,"tie",0.4,40,2,0.714285714285714,0.916666666666667,0.857142857142857,13.4285714285714,0.552486187845304,22.5714285714286,0.485207100591716,30,1,0.272727272727273,0.2,TRUE,FALSE,5,1,TRUE,FALSE,FALSE
"41",40,"561ec90aed6e5a000fc7e8d3",6,1,1,1,TRUE,2503,"tie",0.8,41,1,0.857142857142857,1,1,14.2857142857143,0.585635359116022,23.4285714285714,0.502958579881657,31,2,0.363636363636364,0.3,TRUE,FALSE,6,2,TRUE,FALSE,FALSE
"42",41,"561ec90aed6e5a000fc7e8d3",1,1,1,1,TRUE,90464,"tie",0.4,42,6,0.142857142857143,0.583333333333333,0.285714285714286,14.4285714285714,0.591160220994475,23.5714285714286,0.505917159763314,32,3,0.454545454545455,0.4,TRUE,FALSE,1,3,TRUE,FALSE,FALSE
"43",42,"561ec90aed6e5a000fc7e8d3",5,1,1,-1,TRUE,2361,"tie",0.6,43,2,0.714285714285714,0.916666666666667,0.857142857142857,15.1428571428571,0.61878453038674,24.2857142857143,0.520710059171598,33,4,0.545454545454545,0.5,FALSE,TRUE,5,4,TRUE,TRUE,TRUE
"44",43,"561ec90aed6e5a000fc7e8d3",1,1,1,1,FALSE,3552,"tie",0.2,44,6,0.142857142857143,0.583333333333333,0.285714285714286,15.2857142857143,0.624309392265193,24.4285714285714,0.523668639053254,34,5,0.636363636363636,0.6,TRUE,FALSE,1,5,FALSE,FALSE,FALSE
"45",44,"561ec90aed6e5a000fc7e8d3",5,-1,1,1,FALSE,369149,"win",0.4,45,2,-0.285714285714286,0.333333333333333,0.428571428571429,15,0.613259668508287,24.7142857142857,0.529585798816568,11,1,0.0909090909090909,0.2,FALSE,FALSE,-5,-1,FALSE,FALSE,FALSE
"46",45,"561ec90aed6e5a000fc7e8d3",5,-1,1,-1,FALSE,2337,"win",0.4,46,2,-0.285714285714286,0.333333333333333,0.428571428571429,14.7142857142857,0.602209944751381,25,0.535502958579882,12,2,0,0.3,TRUE,TRUE,-5,-2,FALSE,TRUE,TRUE
"47",46,"561ec90aed6e5a000fc7e8d3",2,1,1,1,FALSE,2440,"tie",0.4,47,5,0.285714285714286,0.666666666666667,0.428571428571429,15,0.613259668508287,25.2857142857143,0.541420118343195,35,1,0.272727272727273,0.2,TRUE,FALSE,2,1,FALSE,FALSE,FALSE
"48",47,"561ec90aed6e5a000fc7e8d3",6,1,1,-1,FALSE,90955,"tie",0.4,48,1,0.857142857142857,1,1,15.8571428571429,0.646408839779006,26.1428571428571,0.559171597633136,36,2,0.363636363636364,0.3,FALSE,TRUE,6,2,FALSE,TRUE,TRUE
"49",48,"561ec90aed6e5a000fc7e8d3",5,-1,1,-1,TRUE,4003,"win",0.4,49,2,-0.285714285714286,0.333333333333333,0.428571428571429,15.5714285714286,0.635359116022099,26.4285714285714,0.56508875739645,13,1,0.0909090909090909,0.2,TRUE,TRUE,-5,-1,TRUE,TRUE,TRUE
"50",49,"561ec90aed6e5a000fc7e8d3",5,1,1,-1,TRUE,69825,"tie",0.4,50,2,0.714285714285714,0.916666666666667,0.857142857142857,16.2857142857143,0.662983425414365,27.1428571428571,0.579881656804734,37,1,0.272727272727273,0.2,FALSE,TRUE,5,1,TRUE,TRUE,TRUE
"51",50,"561ec90aed6e5a000fc7e8d3",5,1,1,1,TRUE,2865,"tie",0.4,51,2,0.714285714285714,0.916666666666667,0.857142857142857,17,0.69060773480663,27.8571428571429,0.594674556213018,38,2,0.363636363636364,0.3,TRUE,FALSE,5,2,TRUE,FALSE,FALSE
"52",51,"561ec90aed6e5a000fc7e8d3",1,-1,1,1,TRUE,4973,"win",0.2,52,6,-0.857142857142857,0,1,16.1428571428571,0.657458563535912,28.7142857142857,0.612426035502959,14,1,0.0909090909090909,0.2,FALSE,FALSE,-1,-1,TRUE,FALSE,FALSE
"53",52,"561ec90aed6e5a000fc7e8d3",4,-1,1,-1,TRUE,8687,"win",0.4,53,3,-0.428571428571429,0.25,0.571428571428572,15.7142857142857,0.640883977900553,29.1428571428571,0.621301775147929,15,2,0,0.3,TRUE,TRUE,-4,-2,TRUE,TRUE,TRUE
"54",53,"561ec90aed6e5a000fc7e8d3",1,1,1,-1,FALSE,2156,"tie",0.2,54,6,0.142857142857143,0.583333333333333,0.285714285714286,15.8571428571429,0.646408839779006,29.2857142857143,0.624260355029586,39,1,0.272727272727273,0.2,FALSE,TRUE,1,1,FALSE,TRUE,TRUE
"55",54,"561ec90aed6e5a000fc7e8d3",5,1,1,-1,FALSE,3480,"tie",0.4,55,2,0.714285714285714,0.916666666666667,0.857142857142857,16.5714285714286,0.674033149171271,30,0.63905325443787,40,2,0.363636363636364,0.3,FALSE,TRUE,5,2,FALSE,TRUE,TRUE
"56",55,"561ec90aed6e5a000fc7e8d3",3,1,1,1,TRUE,71271,"tie",0.2,56,4,0.428571428571429,0.75,0.571428571428572,17,0.69060773480663,30.4285714285714,0.64792899408284,41,3,0.454545454545455,0.4,TRUE,FALSE,3,3,TRUE,FALSE,FALSE
"57",56,"561ec90aed6e5a000fc7e8d3",4,1,-1,-1,FALSE,2932,"loss",0.8,57,3,0.571428571428571,0.833333333333333,0.714285714285714,17.5714285714286,0.712707182320442,31,0.659763313609467,42,4,0.545454545454545,0.5,FALSE,FALSE,4,4,FALSE,FALSE,TRUE
"58",57,"561ec90aed6e5a000fc7e8d3",6,1,1,-1,FALSE,2250,"tie",1,58,1,0.857142857142857,1,1,18.4285714285714,0.74585635359116,31.8571428571429,0.677514792899408,43,5,0.636363636363636,0.6,FALSE,TRUE,6,5,FALSE,TRUE,TRUE
"59",58,"561ec90aed6e5a000fc7e8d3",3,1,1,1,FALSE,3038,"tie",0.4,59,4,0.428571428571429,0.75,0.571428571428572,18.8571428571429,0.762430939226519,32.2857142857143,0.686390532544379,44,6,0.727272727272727,0.7,TRUE,FALSE,3,6,FALSE,FALSE,FALSE
"60",59,"561ec90aed6e5a000fc7e8d3",1,-1,1,1,FALSE,4501,"win",0.4,60,6,-0.857142857142857,0,1,18,0.729281767955801,33.1428571428571,0.704142011834319,16,1,0.0909090909090909,0.2,FALSE,FALSE,-1,-1,FALSE,FALSE,FALSE
"61",60,"561ec90aed6e5a000fc7e8d3",2,1,1,1,FALSE,279604,"tie",0.4,61,5,0.285714285714286,0.666666666666667,0.428571428571429,18.2857142857143,0.740331491712707,33.4285714285714,0.710059171597633,45,1,0.272727272727273,0.2,TRUE,FALSE,2,1,FALSE,FALSE,FALSE
"62",61,"561ec90aed6e5a000fc7e8d3",5,1,1,1,FALSE,2610,"tie",0.4,62,2,0.714285714285714,0.916666666666667,0.857142857142857,19,0.767955801104972,34.1428571428571,0.724852071005917,46,2,0.363636363636364,0.3,TRUE,FALSE,5,2,FALSE,FALSE,FALSE
"63",62,"561ec90aed6e5a000fc7e8d3",5,1,1,-1,TRUE,2353,"tie",0.6,63,2,0.714285714285714,0.916666666666667,0.857142857142857,19.7142857142857,0.795580110497238,34.8571428571429,0.739644970414201,47,3,0.454545454545455,0.4,FALSE,TRUE,5,3,TRUE,TRUE,TRUE
"64",63,"561ec90aed6e5a000fc7e8d3",6,1,1,-1,TRUE,2218,"tie",0.8,64,1,0.857142857142857,1,1,20.5714285714286,0.828729281767956,35.7142857142857,0.757396449704142,48,4,0.545454545454545,0.5,FALSE,TRUE,6,4,TRUE,TRUE,TRUE
"65",64,"561ec90aed6e5a000fc7e8d3",2,1,1,1,TRUE,239435,"tie",0.6,65,5,0.285714285714286,0.666666666666667,0.428571428571429,20.8571428571429,0.839779005524862,36,0.763313609467455,49,5,0.636363636363636,0.6,TRUE,FALSE,2,5,TRUE,FALSE,FALSE
"66",65,"561ec90aed6e5a000fc7e8d3",4,1,1,-1,FALSE,2291,"tie",0.6,66,3,0.571428571428571,0.833333333333333,0.714285714285714,21.4285714285714,0.861878453038674,36.5714285714286,0.775147928994083,50,6,0.727272727272727,0.7,FALSE,TRUE,4,6,FALSE,TRUE,TRUE
"67",66,"561ec90aed6e5a000fc7e8d3",3,1,1,-1,TRUE,3087,"tie",0.4,67,4,0.428571428571429,0.75,0.571428571428572,21.8571428571429,0.878453038674033,37,0.784023668639053,51,7,0.818181818181818,0.8,FALSE,TRUE,3,7,TRUE,TRUE,TRUE
"68",67,"561ec90aed6e5a000fc7e8d3",2,1,1,1,FALSE,4573,"tie",0.2,68,5,0.285714285714286,0.666666666666667,0.428571428571429,22.1428571428571,0.889502762430939,37.2857142857143,0.789940828402367,52,8,0.909090909090909,0.9,TRUE,FALSE,2,8,FALSE,FALSE,FALSE
"69",68,"561ec90aed6e5a000fc7e8d3",4,-1,1,-1,FALSE,2769,"win",0.4,69,3,-0.428571428571429,0.25,0.571428571428572,21.7142857142857,0.87292817679558,37.7142857142857,0.798816568047337,17,1,0.0909090909090909,0.2,TRUE,TRUE,-4,-1,FALSE,TRUE,TRUE
"70",69,"561ec90aed6e5a000fc7e8d3",1,-1,1,-1,FALSE,2877,"win",0.2,70,6,-0.857142857142857,0,1,20.8571428571429,0.839779005524862,38.5714285714286,0.816568047337278,18,2,0,0.3,TRUE,TRUE,-1,-2,FALSE,TRUE,TRUE
"71",70,"561ec90aed6e5a000fc7e8d3",3,1,1,-1,TRUE,2538,"tie",0.4,71,4,0.428571428571429,0.75,0.571428571428572,21.2857142857143,0.856353591160221,39,0.825443786982248,53,1,0.272727272727273,0.2,FALSE,TRUE,3,1,TRUE,TRUE,TRUE
"72",71,"561ec90aed6e5a000fc7e8d3",5,-1,1,-1,TRUE,2628,"win",0.2,72,2,-0.285714285714286,0.333333333333333,0.428571428571429,21,0.845303867403315,39.2857142857143,0.831360946745562,19,1,0.0909090909090909,0.2,TRUE,TRUE,-5,-1,TRUE,TRUE,TRUE
"73",72,"561ec90aed6e5a000fc7e8d3",4,1,1,-1,TRUE,2238,"tie",0.4,73,3,0.571428571428571,0.833333333333333,0.714285714285714,21.5714285714286,0.867403314917127,39.8571428571429,0.843195266272189,54,1,0.272727272727273,0.2,FALSE,TRUE,4,1,TRUE,TRUE,TRUE
"74",73,"561ec90aed6e5a000fc7e8d3",1,1,1,1,FALSE,2648,"tie",0.2,74,6,0.142857142857143,0.583333333333333,0.285714285714286,21.7142857142857,0.87292817679558,40,0.846153846153846,55,2,0.363636363636364,0.3,TRUE,FALSE,1,2,FALSE,FALSE,FALSE
"75",74,"561ec90aed6e5a000fc7e8d3",6,-1,1,-1,FALSE,2329,"win",0.2,75,1,-0.142857142857143,0.416666666666667,0.285714285714286,21.5714285714286,0.867403314917127,40.1428571428571,0.849112426035503,20,1,0.0909090909090909,0.2,TRUE,TRUE,-6,-1,FALSE,TRUE,TRUE
"76",75,"561ec90aed6e5a000fc7e8d3",1,-1,1,1,FALSE,7691,"win",0.2,76,6,-0.857142857142857,0,1,20.7142857142857,0.834254143646409,41,0.866863905325444,21,2,0,0.3,FALSE,FALSE,-1,-2,FALSE,FALSE,FALSE
"77",76,"561ec90aed6e5a000fc7e8d3",3,1,1,1,FALSE,3111,"tie",0.2,77,4,0.428571428571429,0.75,0.571428571428572,21.1428571428571,0.850828729281768,41.4285714285714,0.875739644970414,56,1,0.272727272727273,0.2,TRUE,FALSE,3,1,FALSE,FALSE,FALSE
"78",77,"561ec90aed6e5a000fc7e8d3",2,1,1,1,FALSE,2768,"tie",0.4,78,5,0.285714285714286,0.666666666666667,0.428571428571429,21.4285714285714,0.861878453038674,41.7142857142857,0.881656804733728,57,2,0.363636363636364,0.3,TRUE,FALSE,2,2,FALSE,FALSE,FALSE
"79",78,"561ec90aed6e5a000fc7e8d3",5,1,1,-1,TRUE,2498,"tie",0.6,79,2,0.714285714285714,0.916666666666667,0.857142857142857,22.1428571428571,0.889502762430939,42.4285714285714,0.896449704142012,58,3,0.454545454545455,0.4,FALSE,TRUE,5,3,TRUE,TRUE,TRUE
"80",79,"561ec90aed6e5a000fc7e8d3",1,1,1,1,TRUE,2485,"tie",0.2,80,6,0.142857142857143,0.583333333333333,0.285714285714286,22.2857142857143,0.895027624309392,42.5714285714286,0.899408284023669,59,4,0.545454545454545,0.5,TRUE,FALSE,1,4,TRUE,FALSE,FALSE
"81",80,"561ec90aed6e5a000fc7e8d3",2,1,1,-1,FALSE,2932,"tie",0.2,81,5,0.285714285714286,0.666666666666667,0.428571428571429,22.5714285714286,0.906077348066298,42.8571428571429,0.905325443786982,60,5,0.636363636363636,0.6,FALSE,TRUE,2,5,FALSE,TRUE,TRUE
"82",81,"561ec90aed6e5a000fc7e8d3",6,1,1,-1,TRUE,2410,"tie",0.8,82,1,0.857142857142857,1,1,23.4285714285714,0.939226519337017,43.7142857142857,0.923076923076923,61,6,0.727272727272727,0.7,FALSE,TRUE,6,6,TRUE,TRUE,TRUE
"83",82,"561ec90aed6e5a000fc7e8d3",4,1,1,1,TRUE,2219,"tie",0.6,83,3,0.571428571428571,0.833333333333333,0.714285714285714,24,0.961325966850829,44.2857142857143,0.93491124260355,62,7,0.818181818181818,0.8,TRUE,FALSE,4,7,TRUE,FALSE,FALSE
"84",83,"561ec90aed6e5a000fc7e8d3",3,1,1,1,TRUE,3255,"tie",0.2,84,4,0.428571428571429,0.75,0.571428571428572,24.4285714285714,0.977900552486188,44.7142857142857,0.943786982248521,63,8,0.909090909090909,0.9,TRUE,FALSE,3,8,TRUE,FALSE,FALSE
"85",84,"561ec90aed6e5a000fc7e8d3",1,1,1,1,FALSE,2315,"tie",0.2,85,6,0.142857142857143,0.583333333333333,0.285714285714286,24.5714285714286,0.983425414364641,44.8571428571429,0.946745562130177,64,9,1,1,TRUE,FALSE,1,9,FALSE,FALSE,FALSE
"86",85,"561ec90aed6e5a000fc7e8d3",4,-1,1,-1,FALSE,3392,"win",0.2,86,3,-0.428571428571429,0.25,0.571428571428572,24.1428571428571,0.966850828729282,45.2857142857143,0.955621301775148,22,1,0.0909090909090909,0.2,TRUE,TRUE,-4,-1,FALSE,TRUE,TRUE
"87",86,"561ec90aed6e5a000fc7e8d3",5,1,1,-1,TRUE,2739,"tie",0.4,87,2,0.714285714285714,0.916666666666667,0.857142857142857,24.8571428571429,0.994475138121547,46,0.970414201183432,65,1,0.272727272727273,0.2,FALSE,TRUE,5,1,TRUE,TRUE,TRUE
"88",87,"561ec90aed6e5a000fc7e8d3",1,1,1,1,TRUE,2298,"tie",0.2,88,6,0.142857142857143,0.583333333333333,0.285714285714286,25,1,46.1428571428572,0.973372781065089,66,2,0.363636363636364,0.3,TRUE,FALSE,1,2,TRUE,FALSE,FALSE
"89",88,"561ec90aed6e5a000fc7e8d3",2,-1,1,1,TRUE,2157,"win",0.2,89,5,-0.714285714285714,0.0833333333333334,0.857142857142857,24.2857142857143,0.972375690607735,46.8571428571429,0.988165680473373,23,1,0.0909090909090909,0.2,FALSE,FALSE,-2,-1,TRUE,FALSE,FALSE
"90",89,"561ec90aed6e5a000fc7e8d3",4,1,1,1,FALSE,2862,"tie",0.4,90,3,0.571428571428571,0.833333333333333,0.714285714285714,24.8571428571429,0.994475138121547,47.4285714285714,1,67,1,0.272727272727273,0.2,TRUE,FALSE,4,1,FALSE,FALSE,FALSE
"91",0,"5766d657c8d7b400013782da",6,1,-1,-1,FALSE,3659,"loss",0.4,1,1,0.857142857142857,1,1,0.857142857142857,0.052863436123348,0.857142857142857,0.0343839541547278,1,1,0.235294117647059,0.133333333333333,FALSE,FALSE,6,1,FALSE,FALSE,TRUE
"92",1,"5766d657c8d7b400013782da",2,1,1,1,FALSE,4402,"tie",0.2,2,5,0.285714285714286,0.666666666666667,0.428571428571429,1.14285714285714,0.0616740088105727,1.14285714285714,0.0401146131805158,2,2,0.294117647058824,0.2,TRUE,FALSE,2,2,FALSE,FALSE,FALSE
"93",2,"5766d657c8d7b400013782da",6,1,1,1,TRUE,2486,"tie",0.4,3,1,0.857142857142857,1,1,2,0.0881057268722467,2,0.0573065902578797,3,3,0.352941176470588,0.266666666666667,TRUE,FALSE,6,3,TRUE,FALSE,FALSE
"94",3,"5766d657c8d7b400013782da",1,1,1,1,FALSE,2726,"tie",0.2,4,6,0.142857142857143,0.583333333333333,0.285714285714286,2.14285714285714,0.092511013215859,2.14285714285714,0.0601719197707736,4,4,0.411764705882353,0.333333333333333,TRUE,FALSE,1,4,FALSE,FALSE,FALSE
"95",4,"5766d657c8d7b400013782da",5,-1,-1,-1,TRUE,2449,"tie",0.2,5,2,-0.285714285714286,0.333333333333333,0.428571428571429,1.85714285714286,0.0837004405286343,2.42857142857143,0.0659025787965616,1,1,0.117647058823529,0.133333333333333,TRUE,FALSE,-5,-1,TRUE,FALSE,TRUE
"96",5,"5766d657c8d7b400013782da",2,1,1,1,FALSE,2229,"tie",0.2,6,5,0.285714285714286,0.666666666666667,0.428571428571429,2.14285714285714,0.092511013215859,2.71428571428571,0.0716332378223496,5,1,0.235294117647059,0.133333333333333,TRUE,FALSE,2,1,FALSE,FALSE,FALSE
"97",6,"5766d657c8d7b400013782da",2,1,-1,-1,FALSE,2038,"loss",0.2,7,5,0.285714285714286,0.666666666666667,0.428571428571429,2.42857142857143,0.101321585903084,3,0.0773638968481375,6,2,0.294117647058824,0.2,FALSE,FALSE,2,2,FALSE,FALSE,TRUE
"98",7,"5766d657c8d7b400013782da",5,1,-1,-1,FALSE,2460,"loss",0.4,8,2,0.714285714285714,0.916666666666667,0.857142857142857,3.14285714285714,0.123348017621145,3.71428571428571,0.0916905444126074,7,3,0.352941176470588,0.266666666666667,FALSE,FALSE,5,3,FALSE,FALSE,TRUE
"99",8,"5766d657c8d7b400013782da",2,1,1,1,TRUE,1865,"tie",0.2,9,5,0.285714285714286,0.666666666666667,0.428571428571429,3.42857142857143,0.13215859030837,4,0.0974212034383954,8,4,0.411764705882353,0.333333333333333,TRUE,FALSE,2,4,TRUE,FALSE,FALSE
"100",9,"5766d657c8d7b400013782da",6,1,-1,-1,TRUE,2173,"loss",0.4,10,1,0.857142857142857,1,1,4.28571428571429,0.158590308370044,4.85714285714286,0.114613180515759,9,5,0.470588235294118,0.4,FALSE,FALSE,6,5,TRUE,FALSE,TRUE
"101",10,"5766d657c8d7b400013782da",6,1,-1,-1,TRUE,3507,"loss",0.4,11,1,0.857142857142857,1,1,5.14285714285714,0.185022026431718,5.71428571428571,0.131805157593123,10,6,0.529411764705882,0.466666666666667,FALSE,FALSE,6,6,TRUE,FALSE,TRUE
"102",11,"5766d657c8d7b400013782da",5,-1,1,1,FALSE,3189,"win",0.2,12,2,-0.285714285714286,0.333333333333333,0.428571428571429,4.85714285714286,0.176211453744493,6,0.137535816618911,2,1,0.117647058823529,0.133333333333333,FALSE,FALSE,-5,-1,FALSE,FALSE,FALSE
"103",12,"5766d657c8d7b400013782da",4,1,-1,-1,TRUE,2836,"loss",0.4,13,3,0.571428571428571,0.833333333333333,0.714285714285714,5.42857142857143,0.193832599118943,6.57142857142857,0.148997134670487,11,1,0.235294117647059,0.133333333333333,FALSE,FALSE,4,1,TRUE,FALSE,TRUE
"104",13,"5766d657c8d7b400013782da",6,1,-1,-1,TRUE,3960,"loss",0.4,14,1,0.857142857142857,1,1,6.28571428571428,0.220264317180617,7.42857142857143,0.166189111747851,12,2,0.294117647058824,0.2,FALSE,FALSE,6,2,TRUE,FALSE,TRUE
"105",14,"5766d657c8d7b400013782da",2,1,-1,-1,FALSE,1902,"loss",0.2,15,5,0.285714285714286,0.666666666666667,0.428571428571429,6.57142857142857,0.229074889867841,7.71428571428571,0.171919770773639,13,3,0.352941176470588,0.266666666666667,FALSE,FALSE,2,3,FALSE,FALSE,TRUE
"106",15,"5766d657c8d7b400013782da",6,1,1,1,TRUE,1930,"tie",0.4,16,1,0.857142857142857,1,1,7.42857142857143,0.255506607929515,8.57142857142857,0.189111747851003,14,4,0.411764705882353,0.333333333333333,TRUE,FALSE,6,4,TRUE,FALSE,FALSE
"107",16,"5766d657c8d7b400013782da",6,1,-1,-1,TRUE,2633,"loss",0.4,17,1,0.857142857142857,1,1,8.28571428571428,0.281938325991189,9.42857142857143,0.206303724928367,15,5,0.470588235294118,0.4,FALSE,FALSE,6,5,TRUE,FALSE,TRUE
"108",17,"5766d657c8d7b400013782da",2,1,1,1,TRUE,2249,"tie",0.2,18,5,0.285714285714286,0.666666666666667,0.428571428571429,8.57142857142857,0.290748898678414,9.71428571428571,0.212034383954155,16,6,0.529411764705882,0.466666666666667,TRUE,FALSE,2,6,TRUE,FALSE,FALSE
"109",18,"5766d657c8d7b400013782da",6,1,1,1,TRUE,2156,"tie",0.4,19,1,0.857142857142857,1,1,9.42857142857143,0.317180616740088,10.5714285714286,0.229226361031519,17,7,0.588235294117647,0.533333333333333,TRUE,FALSE,6,7,TRUE,FALSE,FALSE
"110",19,"5766d657c8d7b400013782da",4,-1,-1,-1,FALSE,2280,"tie",0.2,20,3,-0.428571428571429,0.25,0.571428571428572,9,0.303964757709251,11,0.237822349570201,3,1,0.117647058823529,0.133333333333333,TRUE,FALSE,-4,-1,FALSE,FALSE,TRUE
"111",20,"5766d657c8d7b400013782da",5,1,-1,-1,TRUE,1888,"loss",0.4,21,2,0.714285714285714,0.916666666666667,0.857142857142857,9.71428571428571,0.325991189427313,11.7142857142857,0.25214899713467,18,1,0.235294117647059,0.133333333333333,FALSE,FALSE,5,1,TRUE,FALSE,TRUE
"112",21,"5766d657c8d7b400013782da",5,1,-1,-1,TRUE,2837,"loss",0.4,22,2,0.714285714285714,0.916666666666667,0.857142857142857,10.4285714285714,0.348017621145374,12.4285714285714,0.26647564469914,19,2,0.294117647058824,0.2,FALSE,FALSE,5,2,TRUE,FALSE,TRUE
"113",22,"5766d657c8d7b400013782da",3,-1,1,1,TRUE,4721,"win",0.2,23,4,-0.571428571428571,0.166666666666667,0.714285714285714,9.85714285714286,0.330396475770925,13,0.277936962750716,4,1,0.117647058823529,0.133333333333333,FALSE,FALSE,-3,-1,TRUE,FALSE,FALSE
"114",23,"5766d657c8d7b400013782da",2,-1,-1,-1,TRUE,3993,"tie",0.2,24,5,-0.714285714285714,0.0833333333333334,0.857142857142857,9.14285714285714,0.308370044052863,13.7142857142857,0.292263610315186,5,2,0.0588235294117647,0.2,TRUE,FALSE,-2,-2,TRUE,FALSE,TRUE
"115",24,"5766d657c8d7b400013782da",6,1,-1,-1,TRUE,2493,"loss",0.4,25,1,0.857142857142857,1,1,10,0.334801762114537,14.5714285714286,0.30945558739255,20,1,0.235294117647059,0.133333333333333,FALSE,FALSE,6,1,TRUE,FALSE,TRUE
"116",25,"5766d657c8d7b400013782da",5,1,-1,-1,TRUE,2972,"loss",0.4,26,2,0.714285714285714,0.916666666666667,0.857142857142857,10.7142857142857,0.356828193832599,15.2857142857143,0.32378223495702,21,2,0.294117647058824,0.2,FALSE,FALSE,5,2,TRUE,FALSE,TRUE
"117",26,"5766d657c8d7b400013782da",4,1,-1,-1,FALSE,3053,"loss",0.4,27,3,0.571428571428571,0.833333333333333,0.714285714285714,11.2857142857143,0.374449339207048,15.8571428571429,0.335243553008596,22,3,0.352941176470588,0.266666666666667,FALSE,FALSE,4,3,FALSE,FALSE,TRUE
"118",27,"5766d657c8d7b400013782da",1,1,-1,-1,FALSE,3408,"loss",0.2,28,6,0.142857142857143,0.583333333333333,0.285714285714286,11.4285714285714,0.378854625550661,16,0.33810888252149,23,4,0.411764705882353,0.333333333333333,FALSE,FALSE,1,4,FALSE,FALSE,TRUE
"119",28,"5766d657c8d7b400013782da",2,1,-1,-1,TRUE,3276,"loss",0.4,29,5,0.285714285714286,0.666666666666667,0.428571428571429,11.7142857142857,0.387665198237885,16.2857142857143,0.343839541547278,24,5,0.470588235294118,0.4,FALSE,FALSE,2,5,TRUE,FALSE,TRUE
"120",29,"5766d657c8d7b400013782da",4,1,1,1,FALSE,3014,"tie",0.2,30,3,0.571428571428571,0.833333333333333,0.714285714285714,12.2857142857143,0.405286343612335,16.8571428571429,0.355300859598854,25,6,0.529411764705882,0.466666666666667,TRUE,FALSE,4,6,FALSE,FALSE,FALSE
"121",30,"5766d657c8d7b400013782da",5,1,1,1,FALSE,2809,"tie",0.4,31,2,0.714285714285714,0.916666666666667,0.857142857142857,13,0.427312775330396,17.5714285714286,0.369627507163324,26,7,0.588235294117647,0.533333333333333,TRUE,FALSE,5,7,FALSE,FALSE,FALSE
"122",31,"5766d657c8d7b400013782da",4,1,-1,-1,TRUE,2842,"loss",0.4,32,3,0.571428571428571,0.833333333333333,0.714285714285714,13.5714285714286,0.444933920704846,18.1428571428571,0.3810888252149,27,8,0.647058823529412,0.6,FALSE,FALSE,4,8,TRUE,FALSE,TRUE
"123",32,"5766d657c8d7b400013782da",6,1,-1,-1,TRUE,2297,"loss",0.4,33,1,0.857142857142857,1,1,14.4285714285714,0.47136563876652,19,0.398280802292264,28,9,0.705882352941177,0.666666666666667,FALSE,FALSE,6,9,TRUE,FALSE,TRUE
"124",33,"5766d657c8d7b400013782da",1,1,1,1,FALSE,2283,"tie",0.2,34,6,0.142857142857143,0.583333333333333,0.285714285714286,14.5714285714286,0.475770925110132,19.1428571428571,0.401146131805158,29,10,0.764705882352941,0.733333333333333,TRUE,FALSE,1,10,FALSE,FALSE,FALSE
"125",34,"5766d657c8d7b400013782da",6,1,1,1,TRUE,2321,"tie",0.4,35,1,0.857142857142857,1,1,15.4285714285714,0.502202643171806,20,0.418338108882522,30,11,0.823529411764706,0.8,TRUE,FALSE,6,11,TRUE,FALSE,FALSE
"126",35,"5766d657c8d7b400013782da",5,1,-1,-1,TRUE,2434,"loss",0.4,36,2,0.714285714285714,0.916666666666667,0.857142857142857,16.1428571428571,0.524229074889868,20.7142857142857,0.432664756446991,31,12,0.882352941176471,0.866666666666667,FALSE,FALSE,5,12,TRUE,FALSE,TRUE
"127",36,"5766d657c8d7b400013782da",2,1,-1,-1,FALSE,2790,"loss",0.2,37,5,0.285714285714286,0.666666666666667,0.428571428571429,16.4285714285714,0.533039647577092,21,0.438395415472779,32,13,0.941176470588235,0.933333333333333,FALSE,FALSE,2,13,FALSE,FALSE,TRUE
"128",37,"5766d657c8d7b400013782da",4,1,-1,-1,TRUE,3143,"loss",0.4,38,3,0.571428571428571,0.833333333333333,0.714285714285714,17,0.550660792951542,21.5714285714286,0.449856733524355,33,14,1,1,FALSE,FALSE,4,14,TRUE,FALSE,TRUE
"129",38,"5766d657c8d7b400013782da",6,-1,1,1,FALSE,2913,"win",0.4,39,1,-0.142857142857143,0.416666666666667,0.285714285714286,16.8571428571429,0.546255506607929,21.7142857142857,0.452722063037249,6,1,0.117647058823529,0.133333333333333,FALSE,FALSE,-6,-1,FALSE,FALSE,FALSE
"130",39,"5766d657c8d7b400013782da",6,1,-1,-1,TRUE,2962,"loss",0.4,40,1,0.857142857142857,1,1,17.7142857142857,0.572687224669603,22.5714285714286,0.469914040114613,34,1,0.235294117647059,0.133333333333333,FALSE,FALSE,6,1,TRUE,FALSE,TRUE
"131",40,"5766d657c8d7b400013782da",4,1,1,1,FALSE,3217,"tie",0.4,41,3,0.571428571428571,0.833333333333333,0.714285714285714,18.2857142857143,0.590308370044053,23.1428571428571,0.481375358166189,35,2,0.294117647058824,0.2,TRUE,FALSE,4,2,FALSE,FALSE,FALSE
"132",41,"5766d657c8d7b400013782da",6,-1,1,1,FALSE,3592,"win",0.2,42,1,-0.142857142857143,0.416666666666667,0.285714285714286,18.1428571428571,0.58590308370044,23.2857142857143,0.484240687679083,7,1,0.117647058823529,0.133333333333333,FALSE,FALSE,-6,-1,FALSE,FALSE,FALSE
"133",42,"5766d657c8d7b400013782da",5,1,-1,1,TRUE,3663,"loss",0.2,43,2,0.714285714285714,0.916666666666667,0.857142857142857,18.8571428571429,0.607929515418502,24,0.498567335243553,36,1,0.235294117647059,0.133333333333333,TRUE,TRUE,5,1,TRUE,TRUE,FALSE
"134",43,"5766d657c8d7b400013782da",6,-1,-1,-1,FALSE,3360,"tie",0.2,44,1,-0.142857142857143,0.416666666666667,0.285714285714286,18.7142857142857,0.60352422907489,24.1428571428571,0.501432664756447,8,1,0.117647058823529,0.133333333333333,TRUE,FALSE,-6,-1,FALSE,FALSE,TRUE
"135",44,"5766d657c8d7b400013782da",6,1,-1,-1,TRUE,2650,"loss",0.4,45,1,0.857142857142857,1,1,19.5714285714286,0.629955947136564,25,0.518624641833811,37,1,0.235294117647059,0.133333333333333,FALSE,FALSE,6,1,TRUE,FALSE,TRUE
"136",45,"5766d657c8d7b400013782da",6,1,-1,-1,TRUE,5291,"loss",0.4,46,1,0.857142857142857,1,1,20.4285714285714,0.656387665198238,25.8571428571429,0.535816618911175,38,2,0.294117647058824,0.2,FALSE,FALSE,6,2,TRUE,FALSE,TRUE
"137",46,"5766d657c8d7b400013782da",4,-1,1,1,TRUE,4951,"win",0.2,47,3,-0.428571428571429,0.25,0.571428571428572,20,0.643171806167401,26.2857142857143,0.544412607449857,9,1,0.117647058823529,0.133333333333333,FALSE,FALSE,-4,-1,TRUE,FALSE,FALSE
"138",47,"5766d657c8d7b400013782da",6,-1,-1,-1,FALSE,2277,"tie",0.2,48,1,-0.142857142857143,0.416666666666667,0.285714285714286,19.8571428571429,0.638766519823789,26.4285714285714,0.547277936962751,10,2,0.0588235294117647,0.2,TRUE,FALSE,-6,-2,FALSE,FALSE,TRUE
"139",48,"5766d657c8d7b400013782da",2,-1,-1,-1,FALSE,2127,"tie",0.4,49,5,-0.714285714285714,0.0833333333333334,0.857142857142857,19.1428571428571,0.616740088105727,27.1428571428571,0.561604584527221,11,3,0,0.266666666666667,TRUE,FALSE,-2,-3,FALSE,FALSE,TRUE
"140",49,"5766d657c8d7b400013782da",5,1,-1,-1,FALSE,3012,"loss",0.4,50,2,0.714285714285714,0.916666666666667,0.857142857142857,19.8571428571429,0.638766519823789,27.8571428571429,0.575931232091691,39,1,0.235294117647059,0.133333333333333,FALSE,FALSE,5,1,FALSE,FALSE,TRUE
"141",50,"5766d657c8d7b400013782da",6,-1,-1,-1,FALSE,3148,"tie",0.2,51,1,-0.142857142857143,0.416666666666667,0.285714285714286,19.7142857142857,0.634361233480176,28,0.578796561604585,12,1,0.117647058823529,0.133333333333333,TRUE,FALSE,-6,-1,FALSE,FALSE,TRUE
"142",51,"5766d657c8d7b400013782da",4,1,-1,-1,TRUE,4706,"loss",0.2,52,3,0.571428571428571,0.833333333333333,0.714285714285714,20.2857142857143,0.651982378854626,28.5714285714286,0.590257879656161,40,1,0.235294117647059,0.133333333333333,FALSE,FALSE,4,1,TRUE,FALSE,TRUE
"143",52,"5766d657c8d7b400013782da",2,-1,1,1,TRUE,2141,"win",0.2,53,5,-0.714285714285714,0.0833333333333334,0.857142857142857,19.5714285714286,0.629955947136564,29.2857142857143,0.60458452722063,13,1,0.117647058823529,0.133333333333333,FALSE,FALSE,-2,-1,TRUE,FALSE,FALSE
"144",53,"5766d657c8d7b400013782da",6,1,-1,-1,TRUE,3214,"loss",0.4,54,1,0.857142857142857,1,1,20.4285714285714,0.656387665198238,30.1428571428571,0.621776504297994,41,1,0.235294117647059,0.133333333333333,FALSE,FALSE,6,1,TRUE,FALSE,TRUE
"145",54,"5766d657c8d7b400013782da",5,1,-1,-1,TRUE,2488,"loss",0.4,55,2,0.714285714285714,0.916666666666667,0.857142857142857,21.1428571428572,0.6784140969163,30.8571428571429,0.636103151862464,42,2,0.294117647058824,0.2,FALSE,FALSE,5,2,TRUE,FALSE,TRUE
"146",55,"5766d657c8d7b400013782da",2,-1,-1,-1,TRUE,2075,"tie",0.2,56,5,-0.714285714285714,0.0833333333333334,0.857142857142857,20.4285714285714,0.656387665198238,31.5714285714286,0.650429799426934,14,1,0.117647058823529,0.133333333333333,TRUE,FALSE,-2,-1,TRUE,FALSE,TRUE
"147",56,"5766d657c8d7b400013782da",5,1,1,1,TRUE,3673,"tie",0.4,57,2,0.714285714285714,0.916666666666667,0.857142857142857,21.1428571428572,0.6784140969163,32.2857142857143,0.664756446991404,43,1,0.235294117647059,0.133333333333333,TRUE,FALSE,5,1,TRUE,FALSE,FALSE
"148",57,"5766d657c8d7b400013782da",2,1,-1,-1,TRUE,3237,"loss",0.2,58,5,0.285714285714286,0.666666666666667,0.428571428571429,21.4285714285714,0.687224669603524,32.5714285714286,0.670487106017192,44,2,0.294117647058824,0.2,FALSE,FALSE,2,2,TRUE,FALSE,TRUE
"149",58,"5766d657c8d7b400013782da",1,1,-1,-1,FALSE,2380,"loss",0.2,59,6,0.142857142857143,0.583333333333333,0.285714285714286,21.5714285714286,0.691629955947136,32.7142857142857,0.673352435530086,45,3,0.352941176470588,0.266666666666667,FALSE,FALSE,1,3,FALSE,FALSE,TRUE
"150",59,"5766d657c8d7b400013782da",4,1,1,1,TRUE,6773,"tie",0.2,60,3,0.571428571428571,0.833333333333333,0.714285714285714,22.1428571428572,0.709251101321586,33.2857142857143,0.684813753581662,46,4,0.411764705882353,0.333333333333333,TRUE,FALSE,4,4,TRUE,FALSE,FALSE
"151",60,"5766d657c8d7b400013782da",6,1,-1,-1,TRUE,37727,"loss",0.4,61,1,0.857142857142857,1,1,23,0.73568281938326,34.1428571428571,0.702005730659026,47,5,0.470588235294118,0.4,FALSE,FALSE,6,5,TRUE,FALSE,TRUE
"152",61,"5766d657c8d7b400013782da",4,1,-1,-1,FALSE,2541,"loss",0.4,62,3,0.571428571428571,0.833333333333333,0.714285714285714,23.5714285714286,0.753303964757709,34.7142857142857,0.713467048710602,48,6,0.529411764705882,0.466666666666667,FALSE,FALSE,4,6,FALSE,FALSE,TRUE
"153",62,"5766d657c8d7b400013782da",6,-1,-1,-1,FALSE,2892,"tie",0.2,63,1,-0.142857142857143,0.416666666666667,0.285714285714286,23.4285714285714,0.748898678414097,34.8571428571429,0.716332378223496,15,1,0.117647058823529,0.133333333333333,TRUE,FALSE,-6,-1,FALSE,FALSE,TRUE
"154",63,"5766d657c8d7b400013782da",6,1,-1,-1,TRUE,2094,"loss",0.4,64,1,0.857142857142857,1,1,24.2857142857143,0.775330396475771,35.7142857142857,0.73352435530086,49,1,0.235294117647059,0.133333333333333,FALSE,FALSE,6,1,TRUE,FALSE,TRUE
"155",64,"5766d657c8d7b400013782da",5,1,-1,-1,FALSE,2320,"loss",0.4,65,2,0.714285714285714,0.916666666666667,0.857142857142857,25,0.797356828193833,36.4285714285714,0.74785100286533,50,2,0.294117647058824,0.2,FALSE,FALSE,5,2,FALSE,FALSE,TRUE
"156",65,"5766d657c8d7b400013782da",2,1,-1,-1,FALSE,2891,"loss",0.2,66,5,0.285714285714286,0.666666666666667,0.428571428571429,25.2857142857143,0.806167400881057,36.7142857142857,0.753581661891118,51,3,0.352941176470588,0.266666666666667,FALSE,FALSE,2,3,FALSE,FALSE,TRUE
"157",66,"5766d657c8d7b400013782da",4,1,-1,-1,TRUE,2324,"loss",0.2,67,3,0.571428571428571,0.833333333333333,0.714285714285714,25.8571428571429,0.823788546255507,37.2857142857143,0.765042979942693,52,4,0.411764705882353,0.333333333333333,FALSE,FALSE,4,4,TRUE,FALSE,TRUE
"158",67,"5766d657c8d7b400013782da",1,-1,1,1,FALSE,3675,"win",0.4,68,6,-0.857142857142857,0,1,25,0.797356828193833,38.1428571428571,0.782234957020057,16,1,0.117647058823529,0.133333333333333,FALSE,FALSE,-1,-1,FALSE,FALSE,FALSE
"159",68,"5766d657c8d7b400013782da",6,1,-1,-1,FALSE,4792,"loss",0.4,69,1,0.857142857142857,1,1,25.8571428571429,0.823788546255507,39,0.799426934097421,53,1,0.235294117647059,0.133333333333333,FALSE,FALSE,6,1,FALSE,FALSE,TRUE
"160",69,"5766d657c8d7b400013782da",5,1,-1,-1,TRUE,3053,"loss",0.4,70,2,0.714285714285714,0.916666666666667,0.857142857142857,26.5714285714286,0.845814977973568,39.7142857142857,0.813753581661891,54,2,0.294117647058824,0.2,FALSE,FALSE,5,2,TRUE,FALSE,TRUE
"161",70,"5766d657c8d7b400013782da",2,1,-1,-1,FALSE,2258,"loss",0.2,71,5,0.285714285714286,0.666666666666667,0.428571428571429,26.8571428571429,0.854625550660793,40,0.819484240687679,55,3,0.352941176470588,0.266666666666667,FALSE,FALSE,2,3,FALSE,FALSE,TRUE
"162",71,"5766d657c8d7b400013782da",2,-1,1,1,FALSE,3472,"win",0.2,72,5,-0.714285714285714,0.0833333333333334,0.857142857142857,26.1428571428572,0.832599118942731,40.7142857142857,0.833810888252149,17,1,0.117647058823529,0.133333333333333,FALSE,FALSE,-2,-1,FALSE,FALSE,FALSE
"163",72,"5766d657c8d7b400013782da",5,-1,-1,-1,FALSE,5385,"tie",0.2,73,2,-0.285714285714286,0.333333333333333,0.428571428571429,25.8571428571429,0.823788546255507,41,0.839541547277937,18,2,0.0588235294117647,0.2,TRUE,FALSE,-5,-2,FALSE,FALSE,TRUE
"164",73,"5766d657c8d7b400013782da",3,1,1,1,TRUE,4126,"tie",0.2,74,4,0.428571428571429,0.75,0.571428571428572,26.2857142857143,0.837004405286344,41.4285714285714,0.848137535816619,56,1,0.235294117647059,0.133333333333333,TRUE,FALSE,3,1,TRUE,FALSE,FALSE
"165",74,"5766d657c8d7b400013782da",2,1,1,1,FALSE,3546,"tie",0.2,75,5,0.285714285714286,0.666666666666667,0.428571428571429,26.5714285714286,0.845814977973568,41.7142857142857,0.853868194842407,57,2,0.294117647058824,0.2,TRUE,FALSE,2,2,FALSE,FALSE,FALSE
"166",75,"5766d657c8d7b400013782da",5,-1,-1,1,FALSE,2433,"tie",0.2,76,2,-0.285714285714286,0.333333333333333,0.428571428571429,26.2857142857143,0.837004405286344,42,0.859598853868195,19,1,0.117647058823529,0.133333333333333,FALSE,TRUE,-5,-1,FALSE,TRUE,FALSE
"167",76,"5766d657c8d7b400013782da",6,-1,-1,-1,FALSE,2630,"tie",0.2,77,1,-0.142857142857143,0.416666666666667,0.285714285714286,26.1428571428572,0.832599118942731,42.1428571428571,0.862464183381089,20,2,0.0588235294117647,0.2,TRUE,FALSE,-6,-2,FALSE,FALSE,TRUE
"168",77,"5766d657c8d7b400013782da",5,1,-1,-1,TRUE,3471,"loss",0.4,78,2,0.714285714285714,0.916666666666667,0.857142857142857,26.8571428571429,0.854625550660793,42.8571428571429,0.876790830945559,58,1,0.235294117647059,0.133333333333333,FALSE,FALSE,5,1,TRUE,FALSE,TRUE
"169",78,"5766d657c8d7b400013782da",4,1,-1,-1,FALSE,4198,"loss",0.4,79,3,0.571428571428571,0.833333333333333,0.714285714285714,27.4285714285714,0.872246696035242,43.4285714285714,0.888252148997135,59,2,0.294117647058824,0.2,FALSE,FALSE,4,2,FALSE,FALSE,TRUE
"170",79,"5766d657c8d7b400013782da",6,-1,-1,-1,FALSE,2387,"tie",0.2,80,1,-0.142857142857143,0.416666666666667,0.285714285714286,27.2857142857143,0.86784140969163,43.5714285714286,0.891117478510029,21,1,0.117647058823529,0.133333333333333,TRUE,FALSE,-6,-1,FALSE,FALSE,TRUE
"171",80,"5766d657c8d7b400013782da",4,1,1,1,FALSE,2598,"tie",0.2,81,3,0.571428571428571,0.833333333333333,0.714285714285714,27.8571428571429,0.885462555066079,44.1428571428571,0.902578796561604,60,1,0.235294117647059,0.133333333333333,TRUE,FALSE,4,1,FALSE,FALSE,FALSE
"172",81,"5766d657c8d7b400013782da",5,-1,1,1,FALSE,2464,"win",0.2,82,2,-0.285714285714286,0.333333333333333,0.428571428571429,27.5714285714286,0.876651982378855,44.4285714285714,0.908309455587392,22,1,0.117647058823529,0.133333333333333,FALSE,FALSE,-5,-1,FALSE,FALSE,FALSE
"173",82,"5766d657c8d7b400013782da",6,1,-1,-1,TRUE,4177,"loss",0.4,83,1,0.857142857142857,1,1,28.4285714285714,0.903083700440529,45.2857142857143,0.925501432664756,61,1,0.235294117647059,0.133333333333333,FALSE,FALSE,6,1,TRUE,FALSE,TRUE
"174",83,"5766d657c8d7b400013782da",5,1,-1,-1,FALSE,3468,"loss",0.4,84,2,0.714285714285714,0.916666666666667,0.857142857142857,29.1428571428572,0.925110132158591,46,0.939828080229226,62,2,0.294117647058824,0.2,FALSE,FALSE,5,2,FALSE,FALSE,TRUE
"175",84,"5766d657c8d7b400013782da",3,1,1,1,FALSE,2444,"tie",0.2,85,4,0.428571428571429,0.75,0.571428571428572,29.5714285714286,0.938325991189427,46.4285714285714,0.948424068767908,63,3,0.352941176470588,0.266666666666667,TRUE,FALSE,3,3,FALSE,FALSE,FALSE
"176",85,"5766d657c8d7b400013782da",5,1,-1,-1,FALSE,2885,"loss",0.4,86,2,0.714285714285714,0.916666666666667,0.857142857142857,30.2857142857143,0.960352422907489,47.1428571428571,0.962750716332378,64,4,0.411764705882353,0.333333333333333,FALSE,FALSE,5,4,FALSE,FALSE,TRUE
"177",86,"5766d657c8d7b400013782da",3,1,1,1,FALSE,2738,"tie",0.2,87,4,0.428571428571429,0.75,0.571428571428572,30.7142857142857,0.973568281938326,47.5714285714286,0.97134670487106,65,5,0.470588235294118,0.4,TRUE,FALSE,3,5,FALSE,FALSE,FALSE
"178",87,"5766d657c8d7b400013782da",6,1,-1,-1,TRUE,2712,"loss",0.4,88,1,0.857142857142857,1,1,31.5714285714286,1,48.4285714285714,0.988538681948424,66,6,0.529411764705882,0.466666666666667,FALSE,FALSE,6,6,TRUE,FALSE,TRUE
"179",88,"5766d657c8d7b400013782da",4,-1,-1,-1,TRUE,5474,"tie",0.2,89,3,-0.428571428571429,0.25,0.571428571428572,31.1428571428572,0.986784140969163,48.8571428571429,0.997134670487106,23,1,0.117647058823529,0.133333333333333,TRUE,FALSE,-4,-1,TRUE,FALSE,TRUE
"180",89,"5766d657c8d7b400013782da",1,1,1,1,FALSE,2532,"tie",0.2,90,6,0.142857142857143,0.583333333333333,0.285714285714286,31.2857142857143,0.991189427312775,49,1,67,1,0.235294117647059,0.133333333333333,TRUE,FALSE,1,1,FALSE,FALSE,FALSE
"181",0,"577a3dfd92c50c0001c9488f",3,1,1,1,TRUE,4356,"tie",0.2,1,4,0.428571428571429,0.7,0.571428571428572,0.428571428571429,0.0289855072463768,0.428571428571429,0.019047619047619,1,1,0.266666666666667,0.153846153846154,TRUE,FALSE,3,1,TRUE,FALSE,FALSE
"182",1,"577a3dfd92c50c0001c9488f",1,1,-1,-1,FALSE,5133,"loss",0.2,2,6,0.142857142857143,0.5,0.285714285714286,0.571428571428572,0.0338164251207729,0.571428571428572,0.0222222222222222,2,2,0.333333333333333,0.230769230769231,FALSE,FALSE,1,2,FALSE,FALSE,TRUE
"183",2,"577a3dfd92c50c0001c9488f",6,1,-1,-1,TRUE,4594,"loss",0.4,3,1,0.857142857142857,1,1,1.42857142857143,0.0628019323671497,1.42857142857143,0.0412698412698413,3,3,0.4,0.307692307692308,FALSE,FALSE,6,3,TRUE,FALSE,TRUE
"184",3,"577a3dfd92c50c0001c9488f",4,-1,-1,-1,TRUE,5920,"tie",0,4,3,-0.428571428571429,0.1,0.571428571428572,1,0.0483091787439613,1.85714285714286,0.0507936507936508,1,1,0.133333333333333,0.153846153846154,TRUE,FALSE,-4,-1,TRUE,FALSE,TRUE
"185",4,"577a3dfd92c50c0001c9488f",3,1,1,1,FALSE,3329,"tie",0.2,5,4,0.428571428571429,0.7,0.571428571428572,1.42857142857143,0.0628019323671497,2.28571428571429,0.0603174603174603,4,1,0.266666666666667,0.153846153846154,TRUE,FALSE,3,1,FALSE,FALSE,FALSE
"186",5,"577a3dfd92c50c0001c9488f",6,1,-1,-1,TRUE,3912,"loss",0.4,6,1,0.857142857142857,1,1,2.28571428571429,0.0917874396135265,3.14285714285714,0.0793650793650793,5,2,0.333333333333333,0.230769230769231,FALSE,FALSE,6,2,TRUE,FALSE,TRUE
"187",6,"577a3dfd92c50c0001c9488f",6,-1,1,1,FALSE,3395,"win",0,7,1,-0.142857142857143,0.3,0.285714285714286,2.14285714285714,0.0869565217391304,3.28571428571429,0.0825396825396825,2,1,0.133333333333333,0.153846153846154,FALSE,FALSE,-6,-1,FALSE,FALSE,FALSE
"188",7,"577a3dfd92c50c0001c9488f",6,-1,1,1,FALSE,3170,"win",0,8,1,-0.142857142857143,0.3,0.285714285714286,2,0.0821256038647342,3.42857142857143,0.0857142857142857,3,2,0.0666666666666667,0.230769230769231,FALSE,FALSE,-6,-2,FALSE,FALSE,FALSE
"189",8,"577a3dfd92c50c0001c9488f",6,1,-1,-1,TRUE,4171,"loss",0.2,9,1,0.857142857142857,1,1,2.85714285714286,0.111111111111111,4.28571428571429,0.104761904761905,6,1,0.266666666666667,0.153846153846154,FALSE,FALSE,6,1,TRUE,FALSE,TRUE
"190",9,"577a3dfd92c50c0001c9488f",6,1,-1,-1,TRUE,3469,"loss",0.4,10,1,0.857142857142857,1,1,3.71428571428571,0.140096618357488,5.14285714285714,0.123809523809524,7,2,0.333333333333333,0.230769230769231,FALSE,FALSE,6,2,TRUE,FALSE,TRUE
"191",10,"577a3dfd92c50c0001c9488f",6,-1,-1,-1,FALSE,3281,"tie",0,11,1,-0.142857142857143,0.3,0.285714285714286,3.57142857142857,0.135265700483092,5.28571428571429,0.126984126984127,4,1,0.133333333333333,0.153846153846154,TRUE,FALSE,-6,-1,FALSE,FALSE,TRUE
"192",11,"577a3dfd92c50c0001c9488f",5,1,1,1,TRUE,3020,"tie",0,12,2,0.714285714285714,0.9,0.857142857142857,4.28571428571429,0.159420289855072,6,0.142857142857143,8,1,0.266666666666667,0.153846153846154,TRUE,FALSE,5,1,TRUE,FALSE,FALSE
"193",12,"577a3dfd92c50c0001c9488f",3,-1,-1,-1,FALSE,2978,"tie",0,13,4,-0.571428571428571,0,0.714285714285714,3.71428571428572,0.140096618357488,6.57142857142857,0.155555555555556,5,1,0.133333333333333,0.153846153846154,TRUE,FALSE,-3,-1,FALSE,FALSE,TRUE
"194",13,"577a3dfd92c50c0001c9488f",5,1,-1,-1,TRUE,4887,"loss",0,14,2,0.714285714285714,0.9,0.857142857142857,4.42857142857143,0.164251207729469,7.28571428571429,0.171428571428571,9,1,0.266666666666667,0.153846153846154,FALSE,FALSE,5,1,TRUE,FALSE,TRUE
"195",14,"577a3dfd92c50c0001c9488f",6,1,-1,-1,TRUE,2896,"loss",0.2,15,1,0.857142857142857,1,1,5.28571428571429,0.193236714975845,8.14285714285714,0.19047619047619,10,2,0.333333333333333,0.230769230769231,FALSE,FALSE,6,2,TRUE,FALSE,TRUE
"196",15,"577a3dfd92c50c0001c9488f",2,1,1,1,TRUE,3442,"tie",0.2,16,5,0.285714285714286,0.6,0.428571428571429,5.57142857142857,0.202898550724638,8.42857142857143,0.196825396825397,11,3,0.4,0.307692307692308,TRUE,FALSE,2,3,TRUE,FALSE,FALSE
"197",16,"577a3dfd92c50c0001c9488f",4,1,1,1,FALSE,3176,"tie",0.4,17,3,0.571428571428571,0.8,0.714285714285714,6.14285714285714,0.222222222222222,9,0.209523809523809,12,4,0.466666666666667,0.384615384615385,TRUE,FALSE,4,4,FALSE,FALSE,FALSE
"198",17,"577a3dfd92c50c0001c9488f",1,1,1,1,FALSE,3457,"tie",0.4,18,6,0.142857142857143,0.5,0.285714285714286,6.28571428571429,0.227053140096618,9.14285714285714,0.212698412698413,13,5,0.533333333333333,0.461538461538462,TRUE,FALSE,1,5,FALSE,FALSE,FALSE
"199",18,"577a3dfd92c50c0001c9488f",6,1,-1,-1,TRUE,3491,"loss",0.6,19,1,0.857142857142857,1,1,7.14285714285714,0.256038647342995,10,0.231746031746032,14,6,0.6,0.538461538461538,FALSE,FALSE,6,6,TRUE,FALSE,TRUE
"200",19,"577a3dfd92c50c0001c9488f",2,1,1,1,TRUE,3232,"tie",0.6,20,5,0.285714285714286,0.6,0.428571428571429,7.42857142857143,0.265700483091787,10.2857142857143,0.238095238095238,15,7,0.666666666666667,0.615384615384615,TRUE,FALSE,2,7,TRUE,FALSE,FALSE
"201",20,"577a3dfd92c50c0001c9488f",6,1,-1,-1,TRUE,3306,"loss",0.8,21,1,0.857142857142857,1,1,8.28571428571429,0.294685990338164,11.1428571428571,0.257142857142857,16,8,0.733333333333333,0.692307692307692,FALSE,FALSE,6,8,TRUE,FALSE,TRUE
"202",21,"577a3dfd92c50c0001c9488f",2,1,-1,-1,FALSE,3716,"loss",0.8,22,5,0.285714285714286,0.6,0.428571428571429,8.57142857142857,0.304347826086956,11.4285714285714,0.263492063492063,17,9,0.8,0.769230769230769,FALSE,FALSE,2,9,FALSE,FALSE,TRUE
"203",22,"577a3dfd92c50c0001c9488f",4,1,1,1,TRUE,3339,"tie",1,23,3,0.571428571428571,0.8,0.714285714285714,9.14285714285714,0.323671497584541,12,0.276190476190476,18,10,0.866666666666667,0.846153846153846,TRUE,FALSE,4,10,TRUE,FALSE,FALSE
"204",23,"577a3dfd92c50c0001c9488f",5,1,-1,-1,TRUE,3359,"loss",1,24,2,0.714285714285714,0.9,0.857142857142857,9.85714285714286,0.347826086956522,12.7142857142857,0.292063492063492,19,11,0.933333333333333,0.923076923076923,FALSE,FALSE,5,11,TRUE,FALSE,TRUE
"205",24,"577a3dfd92c50c0001c9488f",6,1,-1,-1,TRUE,3316,"loss",1,25,1,0.857142857142857,1,1,10.7142857142857,0.376811594202898,13.5714285714286,0.311111111111111,20,12,1,1,FALSE,FALSE,6,12,TRUE,FALSE,TRUE
"206",25,"577a3dfd92c50c0001c9488f",4,-1,-1,-1,FALSE,4632,"tie",0.4,26,3,-0.428571428571429,0.1,0.571428571428572,10.2857142857143,0.36231884057971,14,0.320634920634921,6,1,0.133333333333333,0.153846153846154,TRUE,FALSE,-4,-1,FALSE,FALSE,TRUE
"207",26,"577a3dfd92c50c0001c9488f",5,-1,-1,-1,FALSE,3296,"tie",0.4,27,2,-0.285714285714286,0.2,0.428571428571429,10,0.352657004830918,14.2857142857143,0.326984126984127,7,2,0.0666666666666667,0.230769230769231,TRUE,FALSE,-5,-2,FALSE,FALSE,TRUE
"208",27,"577a3dfd92c50c0001c9488f",6,-1,-1,-1,FALSE,3318,"tie",0.4,28,1,-0.142857142857143,0.3,0.285714285714286,9.85714285714286,0.347826086956522,14.4285714285714,0.33015873015873,8,3,0,0.307692307692308,TRUE,FALSE,-6,-3,FALSE,FALSE,TRUE
"209",28,"577a3dfd92c50c0001c9488f",6,1,1,1,TRUE,3861,"tie",0.8,29,1,0.857142857142857,1,1,10.7142857142857,0.376811594202898,15.2857142857143,0.349206349206349,21,1,0.266666666666667,0.153846153846154,TRUE,FALSE,6,1,TRUE,FALSE,FALSE
"210",29,"577a3dfd92c50c0001c9488f",6,-1,-1,-1,FALSE,3661,"tie",0.4,30,1,-0.142857142857143,0.3,0.285714285714286,10.5714285714286,0.371980676328502,15.4285714285714,0.352380952380952,9,1,0.133333333333333,0.153846153846154,TRUE,FALSE,-6,-1,FALSE,FALSE,TRUE
"211",30,"577a3dfd92c50c0001c9488f",4,1,-1,-1,FALSE,3360,"loss",0.6,31,3,0.571428571428571,0.8,0.714285714285714,11.1428571428571,0.391304347826087,16,0.365079365079365,22,1,0.266666666666667,0.153846153846154,FALSE,FALSE,4,1,FALSE,FALSE,TRUE
"212",31,"577a3dfd92c50c0001c9488f",6,1,-1,-1,TRUE,2976,"loss",0.6,32,1,0.857142857142857,1,1,12,0.420289855072464,16.8571428571429,0.384126984126984,23,2,0.333333333333333,0.230769230769231,FALSE,FALSE,6,2,TRUE,FALSE,TRUE
"213",32,"577a3dfd92c50c0001c9488f",1,1,1,1,FALSE,3175,"tie",0.8,33,6,0.142857142857143,0.5,0.285714285714286,12.1428571428571,0.42512077294686,17,0.387301587301587,24,3,0.4,0.307692307692308,TRUE,FALSE,1,3,FALSE,FALSE,FALSE
"214",33,"577a3dfd92c50c0001c9488f",6,1,-1,-1,TRUE,2986,"loss",0.8,34,1,0.857142857142857,1,1,13,0.454106280193236,17.8571428571429,0.406349206349206,25,4,0.466666666666667,0.384615384615385,FALSE,FALSE,6,4,TRUE,FALSE,TRUE
"215",34,"577a3dfd92c50c0001c9488f",6,-1,-1,-1,FALSE,6172,"tie",0.4,35,1,-0.142857142857143,0.3,0.285714285714286,12.8571428571429,0.44927536231884,18,0.409523809523809,10,1,0.133333333333333,0.153846153846154,TRUE,FALSE,-6,-1,FALSE,FALSE,TRUE
"216",35,"577a3dfd92c50c0001c9488f",4,1,-1,-1,FALSE,3044,"loss",0.6,36,3,0.571428571428571,0.8,0.714285714285714,13.4285714285714,0.468599033816425,18.5714285714286,0.422222222222222,26,1,0.266666666666667,0.153846153846154,FALSE,FALSE,4,1,FALSE,FALSE,TRUE
"217",36,"577a3dfd92c50c0001c9488f",4,1,-1,-1,TRUE,2890,"loss",0.8,37,3,0.571428571428571,0.8,0.714285714285714,14,0.487922705314009,19.1428571428571,0.434920634920635,27,2,0.333333333333333,0.230769230769231,FALSE,FALSE,4,2,TRUE,FALSE,TRUE
"218",37,"577a3dfd92c50c0001c9488f",2,1,1,1,FALSE,3044,"tie",0.8,38,5,0.285714285714286,0.6,0.428571428571429,14.2857142857143,0.497584541062802,19.4285714285714,0.441269841269841,28,3,0.4,0.307692307692308,TRUE,FALSE,2,3,FALSE,FALSE,FALSE
"219",38,"577a3dfd92c50c0001c9488f",3,-1,-1,-1,FALSE,4119,"tie",0.8,39,4,-0.571428571428571,0,0.714285714285714,13.7142857142857,0.478260869565217,20,0.453968253968254,11,1,0.133333333333333,0.153846153846154,TRUE,FALSE,-3,-1,FALSE,FALSE,TRUE
"220",39,"577a3dfd92c50c0001c9488f",1,1,1,1,FALSE,3066,"tie",0.8,40,6,0.142857142857143,0.5,0.285714285714286,13.8571428571429,0.483091787439613,20.1428571428571,0.457142857142857,29,1,0.266666666666667,0.153846153846154,TRUE,FALSE,1,1,FALSE,FALSE,FALSE
"221",40,"577a3dfd92c50c0001c9488f",3,-1,-1,-1,FALSE,3565,"tie",0.6,41,4,-0.571428571428571,0,0.714285714285714,13.2857142857143,0.463768115942029,20.7142857142857,0.46984126984127,12,1,0.133333333333333,0.153846153846154,TRUE,FALSE,-3,-1,FALSE,FALSE,TRUE
"222",41,"577a3dfd92c50c0001c9488f",6,-1,-1,-1,FALSE,3903,"tie",0.2,42,1,-0.142857142857143,0.3,0.285714285714286,13.1428571428571,0.458937198067633,20.8571428571429,0.473015873015873,13,2,0.0666666666666667,0.230769230769231,TRUE,FALSE,-6,-2,FALSE,FALSE,TRUE
"223",42,"577a3dfd92c50c0001c9488f",4,1,-1,-1,TRUE,4525,"loss",0.4,43,3,0.571428571428571,0.8,0.714285714285714,13.7142857142857,0.478260869565217,21.4285714285714,0.485714285714286,30,1,0.266666666666667,0.153846153846154,FALSE,FALSE,4,1,TRUE,FALSE,TRUE
"224",43,"577a3dfd92c50c0001c9488f",5,1,-1,-1,FALSE,2943,"loss",0.6,44,2,0.714285714285714,0.9,0.857142857142857,14.4285714285714,0.502415458937198,22.1428571428572,0.501587301587302,31,2,0.333333333333333,0.230769230769231,FALSE,FALSE,5,2,FALSE,FALSE,TRUE
"225",44,"577a3dfd92c50c0001c9488f",3,-1,-1,-1,FALSE,2858,"tie",0.2,45,4,-0.571428571428571,0,0.714285714285714,13.8571428571429,0.483091787439613,22.7142857142857,0.514285714285714,14,1,0.133333333333333,0.153846153846154,TRUE,FALSE,-3,-1,FALSE,FALSE,TRUE
"226",45,"577a3dfd92c50c0001c9488f",5,1,-1,-1,TRUE,2724,"loss",0.8,46,2,0.714285714285714,0.9,0.857142857142857,14.5714285714286,0.507246376811594,23.4285714285714,0.53015873015873,32,1,0.266666666666667,0.153846153846154,FALSE,FALSE,5,1,TRUE,FALSE,TRUE
"227",46,"577a3dfd92c50c0001c9488f",2,1,-1,-1,FALSE,3625,"loss",0.2,47,5,0.285714285714286,0.6,0.428571428571429,14.8571428571429,0.516908212560386,23.7142857142857,0.536507936507936,33,2,0.333333333333333,0.230769230769231,FALSE,FALSE,2,2,FALSE,FALSE,TRUE
"228",47,"577a3dfd92c50c0001c9488f",4,1,-1,-1,FALSE,2767,"loss",0.2,48,3,0.571428571428571,0.8,0.714285714285714,15.4285714285714,0.536231884057971,24.2857142857143,0.549206349206349,34,3,0.4,0.307692307692308,FALSE,FALSE,4,3,FALSE,FALSE,TRUE
"229",48,"577a3dfd92c50c0001c9488f",5,1,-1,-1,TRUE,3455,"loss",0.6,49,2,0.714285714285714,0.9,0.857142857142857,16.1428571428571,0.560386473429951,25,0.565079365079365,35,4,0.466666666666667,0.384615384615385,FALSE,FALSE,5,4,TRUE,FALSE,TRUE
"230",49,"577a3dfd92c50c0001c9488f",6,-1,-1,-1,FALSE,3101,"tie",0,50,1,-0.142857142857143,0.3,0.285714285714286,16,0.555555555555555,25.1428571428572,0.568253968253968,15,1,0.133333333333333,0.153846153846154,TRUE,FALSE,-6,-1,FALSE,FALSE,TRUE
"231",50,"577a3dfd92c50c0001c9488f",3,-1,-1,-1,TRUE,2867,"tie",0,51,4,-0.571428571428571,0,0.714285714285714,15.4285714285714,0.536231884057971,25.7142857142857,0.580952380952381,16,2,0.0666666666666667,0.230769230769231,TRUE,FALSE,-3,-2,TRUE,FALSE,TRUE
"232",51,"577a3dfd92c50c0001c9488f",1,1,-1,-1,FALSE,2807,"loss",0,52,6,0.142857142857143,0.5,0.285714285714286,15.5714285714286,0.541062801932367,25.8571428571429,0.584126984126984,36,1,0.266666666666667,0.153846153846154,FALSE,FALSE,1,1,FALSE,FALSE,TRUE
"233",52,"577a3dfd92c50c0001c9488f",4,1,1,1,FALSE,3177,"tie",0.2,53,3,0.571428571428571,0.8,0.714285714285714,16.1428571428571,0.560386473429951,26.4285714285714,0.596825396825397,37,2,0.333333333333333,0.230769230769231,TRUE,FALSE,4,2,FALSE,FALSE,FALSE
"234",53,"577a3dfd92c50c0001c9488f",1,1,1,1,FALSE,2869,"tie",0.2,54,6,0.142857142857143,0.5,0.285714285714286,16.2857142857143,0.565217391304347,26.5714285714286,0.6,38,3,0.4,0.307692307692308,TRUE,FALSE,1,3,FALSE,FALSE,FALSE
"235",54,"577a3dfd92c50c0001c9488f",5,1,-1,-1,FALSE,3130,"loss",0.4,55,2,0.714285714285714,0.9,0.857142857142857,17,0.589371980676328,27.2857142857143,0.615873015873016,39,4,0.466666666666667,0.384615384615385,FALSE,FALSE,5,4,FALSE,FALSE,TRUE
"236",55,"577a3dfd92c50c0001c9488f",4,1,-1,-1,TRUE,2997,"loss",0.6,56,3,0.571428571428571,0.8,0.714285714285714,17.5714285714286,0.608695652173913,27.8571428571429,0.628571428571429,40,5,0.533333333333333,0.461538461538462,FALSE,FALSE,4,5,TRUE,FALSE,TRUE
"237",56,"577a3dfd92c50c0001c9488f",5,1,-1,-1,TRUE,3239,"loss",0.8,57,2,0.714285714285714,0.9,0.857142857142857,18.2857142857143,0.632850241545893,28.5714285714286,0.644444444444444,41,6,0.6,0.538461538461538,FALSE,FALSE,5,6,TRUE,FALSE,TRUE
"238",57,"577a3dfd92c50c0001c9488f",1,1,1,1,FALSE,3105,"tie",0.2,58,6,0.142857142857143,0.5,0.285714285714286,18.4285714285714,0.637681159420289,28.7142857142857,0.647619047619048,42,7,0.666666666666667,0.615384615384615,TRUE,FALSE,1,7,FALSE,FALSE,FALSE
"239",58,"577a3dfd92c50c0001c9488f",6,-1,-1,-1,FALSE,3846,"tie",0.2,59,1,-0.142857142857143,0.3,0.285714285714286,18.2857142857143,0.632850241545893,28.8571428571429,0.650793650793651,17,1,0.133333333333333,0.153846153846154,TRUE,FALSE,-6,-1,FALSE,FALSE,TRUE
"240",59,"577a3dfd92c50c0001c9488f",1,1,1,1,FALSE,2930,"tie",0.2,60,6,0.142857142857143,0.5,0.285714285714286,18.4285714285714,0.637681159420289,29,0.653968253968254,43,1,0.266666666666667,0.153846153846154,TRUE,FALSE,1,1,FALSE,FALSE,FALSE
"241",60,"577a3dfd92c50c0001c9488f",4,1,-1,-1,TRUE,3294,"loss",0.2,61,3,0.571428571428571,0.8,0.714285714285714,19,0.657004830917874,29.5714285714286,0.666666666666667,44,2,0.333333333333333,0.230769230769231,FALSE,FALSE,4,2,TRUE,FALSE,TRUE
"242",61,"577a3dfd92c50c0001c9488f",5,1,1,1,TRUE,3089,"tie",0.4,62,2,0.714285714285714,0.9,0.857142857142857,19.7142857142857,0.681159420289855,30.2857142857143,0.682539682539683,45,3,0.4,0.307692307692308,TRUE,FALSE,5,3,TRUE,FALSE,FALSE
"243",62,"577a3dfd92c50c0001c9488f",2,1,1,1,TRUE,2999,"tie",0.2,63,5,0.285714285714286,0.6,0.428571428571429,20,0.690821256038647,30.5714285714286,0.688888888888889,46,4,0.466666666666667,0.384615384615385,TRUE,FALSE,2,4,TRUE,FALSE,FALSE
"244",63,"577a3dfd92c50c0001c9488f",5,-1,-1,-1,FALSE,3270,"tie",0.2,64,2,-0.285714285714286,0.2,0.428571428571429,19.7142857142857,0.681159420289855,30.8571428571429,0.695238095238095,18,1,0.133333333333333,0.153846153846154,TRUE,FALSE,-5,-1,FALSE,FALSE,TRUE
"245",64,"577a3dfd92c50c0001c9488f",5,1,-1,-1,TRUE,3761,"loss",0.6,65,2,0.714285714285714,0.9,0.857142857142857,20.4285714285714,0.705314009661835,31.5714285714286,0.711111111111111,47,1,0.266666666666667,0.153846153846154,FALSE,FALSE,5,1,TRUE,FALSE,TRUE
"246",65,"577a3dfd92c50c0001c9488f",4,-1,-1,-1,FALSE,3044,"tie",0.2,66,3,-0.428571428571429,0.1,0.571428571428572,20,0.690821256038647,32,0.720634920634921,19,1,0.133333333333333,0.153846153846154,TRUE,FALSE,-4,-1,FALSE,FALSE,TRUE
"247",66,"577a3dfd92c50c0001c9488f",6,-1,-1,-1,FALSE,3013,"tie",0.2,67,1,-0.142857142857143,0.3,0.285714285714286,19.8571428571429,0.685990338164251,32.1428571428572,0.723809523809524,20,2,0.0666666666666667,0.230769230769231,TRUE,FALSE,-6,-2,FALSE,FALSE,TRUE
"248",67,"577a3dfd92c50c0001c9488f",5,-1,1,1,FALSE,4814,"win",0,68,2,-0.285714285714286,0.2,0.428571428571429,19.5714285714286,0.676328502415459,32.4285714285715,0.73015873015873,21,3,0,0.307692307692308,FALSE,FALSE,-5,-3,FALSE,FALSE,FALSE
"249",68,"577a3dfd92c50c0001c9488f",6,1,-1,-1,TRUE,3199,"loss",0.8,69,1,0.857142857142857,1,1,20.4285714285714,0.705314009661836,33.2857142857143,0.749206349206349,48,1,0.266666666666667,0.153846153846154,FALSE,FALSE,6,1,TRUE,FALSE,TRUE
"250",69,"577a3dfd92c50c0001c9488f",3,1,-1,-1,FALSE,2904,"loss",0.2,70,4,0.428571428571429,0.7,0.571428571428572,20.8571428571429,0.719806763285024,33.7142857142857,0.758730158730159,49,2,0.333333333333333,0.230769230769231,FALSE,FALSE,3,2,FALSE,FALSE,TRUE
"251",70,"577a3dfd92c50c0001c9488f",6,-1,-1,-1,FALSE,3034,"tie",0.2,71,1,-0.142857142857143,0.3,0.285714285714286,20.7142857142857,0.714975845410628,33.8571428571429,0.761904761904762,22,1,0.133333333333333,0.153846153846154,TRUE,FALSE,-6,-1,FALSE,FALSE,TRUE
"252",71,"577a3dfd92c50c0001c9488f",2,1,1,1,TRUE,3023,"tie",0.2,72,5,0.285714285714286,0.6,0.428571428571429,21,0.72463768115942,34.1428571428572,0.768253968253969,50,1,0.266666666666667,0.153846153846154,TRUE,FALSE,2,1,TRUE,FALSE,FALSE
"253",72,"577a3dfd92c50c0001c9488f",1,1,1,1,TRUE,2731,"tie",0.2,73,6,0.142857142857143,0.5,0.285714285714286,21.1428571428572,0.729468599033816,34.2857142857143,0.771428571428572,51,2,0.333333333333333,0.230769230769231,TRUE,FALSE,1,2,TRUE,FALSE,FALSE
"254",73,"577a3dfd92c50c0001c9488f",4,1,-1,-1,TRUE,8216,"loss",0.4,74,3,0.571428571428571,0.8,0.714285714285714,21.7142857142857,0.748792270531401,34.8571428571429,0.784126984126984,52,3,0.4,0.307692307692308,FALSE,FALSE,4,3,TRUE,FALSE,TRUE
"255",74,"577a3dfd92c50c0001c9488f",6,-1,-1,-1,FALSE,2742,"tie",0.2,75,1,-0.142857142857143,0.3,0.285714285714286,21.5714285714286,0.743961352657005,35,0.787301587301588,23,1,0.133333333333333,0.153846153846154,TRUE,FALSE,-6,-1,FALSE,FALSE,TRUE
"256",75,"577a3dfd92c50c0001c9488f",5,1,-1,-1,FALSE,3506,"loss",0.6,76,2,0.714285714285714,0.9,0.857142857142857,22.2857142857143,0.768115942028985,35.7142857142857,0.803174603174604,53,1,0.266666666666667,0.153846153846154,FALSE,FALSE,5,1,FALSE,FALSE,TRUE
"257",76,"577a3dfd92c50c0001c9488f",6,1,-1,-1,TRUE,3189,"loss",0.8,77,1,0.857142857142857,1,1,23.1428571428572,0.797101449275362,36.5714285714286,0.822222222222222,54,2,0.333333333333333,0.230769230769231,FALSE,FALSE,6,2,TRUE,FALSE,TRUE
"258",77,"577a3dfd92c50c0001c9488f",5,-1,-1,-1,TRUE,3620,"tie",0.2,78,2,-0.285714285714286,0.2,0.428571428571429,22.8571428571429,0.78743961352657,36.8571428571429,0.828571428571429,24,1,0.133333333333333,0.153846153846154,TRUE,FALSE,-5,-1,TRUE,FALSE,TRUE
"259",78,"577a3dfd92c50c0001c9488f",5,1,-1,-1,TRUE,3260,"loss",0.6,79,2,0.714285714285714,0.9,0.857142857142857,23.5714285714286,0.811594202898551,37.5714285714286,0.844444444444445,55,1,0.266666666666667,0.153846153846154,FALSE,FALSE,5,1,TRUE,FALSE,TRUE
"260",79,"577a3dfd92c50c0001c9488f",5,-1,-1,-1,TRUE,3574,"tie",0.2,80,2,-0.285714285714286,0.2,0.428571428571429,23.2857142857143,0.801932367149758,37.8571428571429,0.850793650793651,25,1,0.133333333333333,0.153846153846154,TRUE,FALSE,-5,-1,TRUE,FALSE,TRUE
"261",80,"577a3dfd92c50c0001c9488f",6,1,-1,-1,TRUE,3133,"loss",0.8,81,1,0.857142857142857,1,1,24.1428571428572,0.830917874396135,38.7142857142857,0.86984126984127,56,1,0.266666666666667,0.153846153846154,FALSE,FALSE,6,1,TRUE,FALSE,TRUE
"262",81,"577a3dfd92c50c0001c9488f",4,-1,-1,-1,FALSE,2743,"tie",0.2,82,3,-0.428571428571429,0.1,0.571428571428572,23.7142857142857,0.816425120772947,39.1428571428572,0.87936507936508,26,1,0.133333333333333,0.153846153846154,TRUE,FALSE,-4,-1,FALSE,FALSE,TRUE
"263",82,"577a3dfd92c50c0001c9488f",5,1,-1,-1,TRUE,3356,"loss",0.8,83,2,0.714285714285714,0.9,0.857142857142857,24.4285714285714,0.840579710144927,39.8571428571429,0.895238095238095,57,1,0.266666666666667,0.153846153846154,FALSE,FALSE,5,1,TRUE,FALSE,TRUE
"264",83,"577a3dfd92c50c0001c9488f",6,1,-1,-1,TRUE,2892,"loss",1,84,1,0.857142857142857,1,1,25.2857142857143,0.869565217391304,40.7142857142857,0.914285714285714,58,2,0.333333333333333,0.230769230769231,FALSE,FALSE,6,2,TRUE,FALSE,TRUE
"265",84,"577a3dfd92c50c0001c9488f",6,1,-1,-1,TRUE,3217,"loss",1,85,1,0.857142857142857,1,1,26.1428571428572,0.898550724637681,41.5714285714286,0.933333333333333,59,3,0.4,0.307692307692308,FALSE,FALSE,6,3,TRUE,FALSE,TRUE
"266",85,"577a3dfd92c50c0001c9488f",4,1,-1,-1,TRUE,3993,"loss",0.8,86,3,0.571428571428571,0.8,0.714285714285714,26.7142857142857,0.917874396135266,42.1428571428572,0.946031746031746,60,4,0.466666666666667,0.384615384615385,FALSE,FALSE,4,4,TRUE,FALSE,TRUE
"267",86,"577a3dfd92c50c0001c9488f",5,1,-1,-1,TRUE,3102,"loss",0.8,87,2,0.714285714285714,0.9,0.857142857142857,27.4285714285715,0.942028985507246,42.8571428571429,0.961904761904762,61,5,0.533333333333333,0.461538461538462,FALSE,FALSE,5,5,TRUE,FALSE,TRUE
"268",87,"577a3dfd92c50c0001c9488f",2,1,1,1,TRUE,3041,"tie",0.4,88,5,0.285714285714286,0.6,0.428571428571429,27.7142857142857,0.951690821256039,43.1428571428572,0.968253968253968,62,6,0.6,0.538461538461538,TRUE,FALSE,2,6,TRUE,FALSE,FALSE
"269",88,"577a3dfd92c50c0001c9488f",5,1,1,1,FALSE,4857,"tie",0.4,89,2,0.714285714285714,0.9,0.857142857142857,28.4285714285715,0.975845410628019,43.8571428571429,0.984126984126984,63,7,0.666666666666667,0.615384615384615,TRUE,FALSE,5,7,FALSE,FALSE,FALSE
"270",89,"577a3dfd92c50c0001c9488f",5,1,-1,-1,FALSE,3154,"loss",0.6,90,2,0.714285714285714,0.9,0.857142857142857,29.1428571428572,1,44.5714285714286,1,64,8,0.733333333333333,0.692307692307692,FALSE,FALSE,5,8,FALSE,FALSE,TRUE
"271",0,"579de4e24d107800016dd926",4,1,-1,-1,TRUE,4944,"loss",0,1,3,0.571428571428571,0.833333333333333,0.714285714285714,0.571428571428571,0.0346320346320346,0.571428571428571,0.0254777070063694,1,1,0.285714285714286,0.166666666666667,FALSE,FALSE,4,1,TRUE,FALSE,TRUE
"272",1,"579de4e24d107800016dd926",2,1,-1,-1,FALSE,4445,"loss",0,2,5,0.285714285714286,0.666666666666667,0.428571428571429,0.857142857142857,0.0432900432900433,0.857142857142857,0.0318471337579618,2,2,0.357142857142857,0.25,FALSE,FALSE,2,2,FALSE,FALSE,TRUE
"273",2,"579de4e24d107800016dd926",5,1,-1,-1,TRUE,4065,"loss",0,3,2,0.714285714285714,0.916666666666667,0.857142857142857,1.57142857142857,0.0649350649350649,1.57142857142857,0.0477707006369427,3,3,0.428571428571429,0.333333333333333,FALSE,FALSE,5,3,TRUE,FALSE,TRUE
"274",3,"579de4e24d107800016dd926",5,-1,-1,-1,FALSE,4885,"tie",0,4,2,-0.285714285714286,0.333333333333333,0.428571428571429,1.28571428571429,0.0562770562770563,1.85714285714286,0.054140127388535,1,1,0.142857142857143,0.166666666666667,TRUE,FALSE,-5,-1,FALSE,FALSE,TRUE
"275",4,"579de4e24d107800016dd926",6,-1,-1,-1,FALSE,3997,"tie",0,5,1,-0.142857142857143,0.416666666666667,0.285714285714286,1.14285714285714,0.0519480519480519,2,0.0573248407643312,2,2,0.0714285714285714,0.25,TRUE,FALSE,-6,-2,FALSE,FALSE,TRUE
"276",5,"579de4e24d107800016dd926",1,1,1,1,FALSE,4015,"tie",0,6,6,0.142857142857143,0.583333333333333,0.285714285714286,1.28571428571429,0.0562770562770563,2.14285714285714,0.0605095541401274,4,1,0.285714285714286,0.166666666666667,TRUE,FALSE,1,1,FALSE,FALSE,FALSE
"277",6,"579de4e24d107800016dd926",6,-1,-1,-1,FALSE,3522,"tie",0,7,1,-0.142857142857143,0.416666666666667,0.285714285714286,1.14285714285714,0.0519480519480519,2.28571428571429,0.0636942675159236,3,1,0.142857142857143,0.166666666666667,TRUE,FALSE,-6,-1,FALSE,FALSE,TRUE
"278",7,"579de4e24d107800016dd926",5,1,1,1,TRUE,5635,"tie",0,8,2,0.714285714285714,0.916666666666667,0.857142857142857,1.85714285714286,0.0735930735930736,3,0.0796178343949045,5,1,0.285714285714286,0.166666666666667,TRUE,FALSE,5,1,TRUE,FALSE,FALSE
"279",8,"579de4e24d107800016dd926",6,-1,-1,-1,FALSE,3878,"tie",0,9,1,-0.142857142857143,0.416666666666667,0.285714285714286,1.71428571428571,0.0692640692640693,3.14285714285714,0.0828025477707007,4,1,0.142857142857143,0.166666666666667,TRUE,FALSE,-6,-1,FALSE,FALSE,TRUE
"280",9,"579de4e24d107800016dd926",6,1,-1,-1,TRUE,4145,"loss",0,10,1,0.857142857142857,1,1,2.57142857142857,0.0952380952380952,4,0.101910828025478,6,1,0.285714285714286,0.166666666666667,FALSE,FALSE,6,1,TRUE,FALSE,TRUE
"281",10,"579de4e24d107800016dd926",1,1,1,1,FALSE,2973,"tie",0,11,6,0.142857142857143,0.583333333333333,0.285714285714286,2.71428571428571,0.0995670995670996,4.14285714285714,0.105095541401274,7,2,0.357142857142857,0.25,TRUE,FALSE,1,2,FALSE,FALSE,FALSE
"282",11,"579de4e24d107800016dd926",6,1,-1,-1,TRUE,6207,"loss",0.4,12,1,0.857142857142857,1,1,3.57142857142857,0.125541125541126,5,0.124203821656051,8,3,0.428571428571429,0.333333333333333,FALSE,FALSE,6,3,TRUE,FALSE,TRUE
"283",12,"579de4e24d107800016dd926",6,1,1,1,TRUE,4776,"tie",0.4,13,1,0.857142857142857,1,1,4.42857142857143,0.151515151515152,5.85714285714286,0.143312101910828,9,4,0.5,0.416666666666667,TRUE,FALSE,6,4,TRUE,FALSE,FALSE
"284",13,"579de4e24d107800016dd926",4,1,1,1,TRUE,5056,"tie",0.2,14,3,0.571428571428571,0.833333333333333,0.714285714285714,5,0.168831168831169,6.42857142857143,0.156050955414013,10,5,0.571428571428571,0.5,TRUE,FALSE,4,5,TRUE,FALSE,FALSE
"285",14,"579de4e24d107800016dd926",6,1,-1,-1,FALSE,3691,"loss",0.2,15,1,0.857142857142857,1,1,5.85714285714286,0.194805194805195,7.28571428571429,0.17515923566879,11,6,0.642857142857143,0.583333333333333,FALSE,FALSE,6,6,FALSE,FALSE,TRUE
"286",15,"579de4e24d107800016dd926",5,1,1,1,TRUE,4804,"tie",0.2,16,2,0.714285714285714,0.916666666666667,0.857142857142857,6.57142857142857,0.216450216450216,8,0.191082802547771,12,7,0.714285714285714,0.666666666666667,TRUE,FALSE,5,7,TRUE,FALSE,FALSE
"287",16,"579de4e24d107800016dd926",6,-1,-1,-1,FALSE,2991,"tie",0,17,1,-0.142857142857143,0.416666666666667,0.285714285714286,6.42857142857143,0.212121212121212,8.14285714285714,0.194267515923567,5,1,0.142857142857143,0.166666666666667,TRUE,FALSE,-6,-1,FALSE,FALSE,TRUE
"288",17,"579de4e24d107800016dd926",4,1,1,1,TRUE,3883,"tie",0,18,3,0.571428571428571,0.833333333333333,0.714285714285714,7,0.229437229437229,8.71428571428571,0.207006369426752,13,1,0.285714285714286,0.166666666666667,TRUE,FALSE,4,1,TRUE,FALSE,FALSE
"289",18,"579de4e24d107800016dd926",5,1,-1,-1,TRUE,4196,"loss",0.2,19,2,0.714285714285714,0.916666666666667,0.857142857142857,7.71428571428571,0.251082251082251,9.42857142857143,0.222929936305732,14,2,0.357142857142857,0.25,FALSE,FALSE,5,2,TRUE,FALSE,TRUE
"290",19,"579de4e24d107800016dd926",6,1,-1,-1,TRUE,4029,"loss",0,20,1,0.857142857142857,1,1,8.57142857142857,0.277056277056277,10.2857142857143,0.24203821656051,15,3,0.428571428571429,0.333333333333333,FALSE,FALSE,6,3,TRUE,FALSE,TRUE
"291",20,"579de4e24d107800016dd926",4,1,1,1,TRUE,3292,"tie",0.2,21,3,0.571428571428571,0.833333333333333,0.714285714285714,9.14285714285714,0.294372294372294,10.8571428571429,0.254777070063694,16,4,0.5,0.416666666666667,TRUE,FALSE,4,4,TRUE,FALSE,FALSE
"292",21,"579de4e24d107800016dd926",1,1,1,1,FALSE,3732,"tie",0.2,22,6,0.142857142857143,0.583333333333333,0.285714285714286,9.28571428571428,0.298701298701299,11,0.25796178343949,17,5,0.571428571428571,0.5,TRUE,FALSE,1,5,FALSE,FALSE,FALSE
"293",22,"579de4e24d107800016dd926",1,1,1,1,FALSE,3020,"tie",0.2,23,6,0.142857142857143,0.583333333333333,0.285714285714286,9.42857142857143,0.303030303030303,11.1428571428571,0.261146496815287,18,6,0.642857142857143,0.583333333333333,TRUE,FALSE,1,6,FALSE,FALSE,FALSE
"294",23,"579de4e24d107800016dd926",1,1,1,1,FALSE,4988,"tie",0.2,24,6,0.142857142857143,0.583333333333333,0.285714285714286,9.57142857142857,0.307359307359307,11.2857142857143,0.264331210191083,19,7,0.714285714285714,0.666666666666667,TRUE,FALSE,1,7,FALSE,FALSE,FALSE
"295",24,"579de4e24d107800016dd926",1,1,1,1,FALSE,3722,"tie",0.2,25,6,0.142857142857143,0.583333333333333,0.285714285714286,9.71428571428571,0.311688311688312,11.4285714285714,0.267515923566879,20,8,0.785714285714286,0.75,TRUE,FALSE,1,8,FALSE,FALSE,FALSE
"296",25,"579de4e24d107800016dd926",5,1,-1,-1,TRUE,3335,"loss",0.2,26,2,0.714285714285714,0.916666666666667,0.857142857142857,10.4285714285714,0.333333333333333,12.1428571428571,0.28343949044586,21,9,0.857142857142857,0.833333333333333,FALSE,FALSE,5,9,TRUE,FALSE,TRUE
"297",26,"579de4e24d107800016dd926",6,-1,-1,-1,FALSE,4959,"tie",0.2,27,1,-0.142857142857143,0.416666666666667,0.285714285714286,10.2857142857143,0.329004329004329,12.2857142857143,0.286624203821656,6,1,0.142857142857143,0.166666666666667,TRUE,FALSE,-6,-1,FALSE,FALSE,TRUE
"298",27,"579de4e24d107800016dd926",4,1,-1,-1,TRUE,3524,"loss",0.2,28,3,0.571428571428571,0.833333333333333,0.714285714285714,10.8571428571429,0.346320346320346,12.8571428571429,0.299363057324841,22,1,0.285714285714286,0.166666666666667,FALSE,FALSE,4,1,TRUE,FALSE,TRUE
"299",28,"579de4e24d107800016dd926",1,-1,-1,-1,FALSE,3784,"tie",0,29,6,-0.857142857142857,0,1,10,0.32034632034632,13.7142857142857,0.318471337579618,7,1,0.142857142857143,0.166666666666667,TRUE,FALSE,-1,-1,FALSE,FALSE,TRUE
"300",29,"579de4e24d107800016dd926",4,1,-1,-1,TRUE,4016,"loss",0,30,3,0.571428571428571,0.833333333333333,0.714285714285714,10.5714285714286,0.337662337662338,14.2857142857143,0.331210191082803,23,1,0.285714285714286,0.166666666666667,FALSE,FALSE,4,1,TRUE,FALSE,TRUE
"301",30,"579de4e24d107800016dd926",4,1,-1,-1,TRUE,72412,"loss",0.2,31,3,0.571428571428571,0.833333333333333,0.714285714285714,11.1428571428571,0.354978354978355,14.8571428571429,0.343949044585987,24,2,0.357142857142857,0.25,FALSE,FALSE,4,2,TRUE,FALSE,TRUE
"302",31,"579de4e24d107800016dd926",4,1,1,1,FALSE,4775,"tie",0,32,3,0.571428571428571,0.833333333333333,0.714285714285714,11.7142857142857,0.372294372294372,15.4285714285714,0.356687898089172,25,3,0.428571428571429,0.333333333333333,TRUE,FALSE,4,3,FALSE,FALSE,FALSE
"303",32,"579de4e24d107800016dd926",5,-1,-1,-1,FALSE,4467,"tie",0,33,2,-0.285714285714286,0.333333333333333,0.428571428571429,11.4285714285714,0.363636363636363,15.7142857142857,0.363057324840764,8,1,0.142857142857143,0.166666666666667,TRUE,FALSE,-5,-1,FALSE,FALSE,TRUE
"304",33,"579de4e24d107800016dd926",2,1,1,1,TRUE,35007,"tie",0,34,5,0.285714285714286,0.666666666666667,0.428571428571429,11.7142857142857,0.372294372294372,16,0.369426751592357,26,1,0.285714285714286,0.166666666666667,TRUE,FALSE,2,1,TRUE,FALSE,FALSE
"305",34,"579de4e24d107800016dd926",6,1,-1,-1,TRUE,3908,"loss",0,35,1,0.857142857142857,1,1,12.5714285714286,0.398268398268398,16.8571428571429,0.388535031847134,27,2,0.357142857142857,0.25,FALSE,FALSE,6,2,TRUE,FALSE,TRUE
"306",35,"579de4e24d107800016dd926",6,1,-1,-1,TRUE,3557,"loss",0,36,1,0.857142857142857,1,1,13.4285714285714,0.424242424242424,17.7142857142857,0.407643312101911,28,3,0.428571428571429,0.333333333333333,FALSE,FALSE,6,3,TRUE,FALSE,TRUE
"307",36,"579de4e24d107800016dd926",6,-1,-1,-1,FALSE,4415,"tie",0,37,1,-0.142857142857143,0.416666666666667,0.285714285714286,13.2857142857143,0.41991341991342,17.8571428571429,0.410828025477707,9,1,0.142857142857143,0.166666666666667,TRUE,FALSE,-6,-1,FALSE,FALSE,TRUE
"308",37,"579de4e24d107800016dd926",6,-1,-1,-1,FALSE,3382,"tie",0,38,1,-0.142857142857143,0.416666666666667,0.285714285714286,13.1428571428571,0.415584415584416,18,0.414012738853503,10,2,0.0714285714285714,0.25,TRUE,FALSE,-6,-2,FALSE,FALSE,TRUE
"309",38,"579de4e24d107800016dd926",4,-1,1,1,FALSE,2862,"win",0,39,3,-0.428571428571429,0.25,0.571428571428572,12.7142857142857,0.402597402597403,18.4285714285714,0.423566878980892,11,3,0,0.333333333333333,FALSE,FALSE,-4,-3,FALSE,FALSE,FALSE
"310",39,"579de4e24d107800016dd926",6,1,-1,-1,TRUE,3895,"loss",0,40,1,0.857142857142857,1,1,13.5714285714286,0.428571428571428,19.2857142857143,0.442675159235669,29,1,0.285714285714286,0.166666666666667,FALSE,FALSE,6,1,TRUE,FALSE,TRUE
"311",40,"579de4e24d107800016dd926",2,1,1,1,FALSE,3752,"tie",0,41,5,0.285714285714286,0.666666666666667,0.428571428571429,13.8571428571429,0.437229437229437,19.5714285714286,0.449044585987261,30,2,0.357142857142857,0.25,TRUE,FALSE,2,2,FALSE,FALSE,FALSE
"312",41,"579de4e24d107800016dd926",4,1,-1,-1,TRUE,4277,"loss",0,42,3,0.571428571428571,0.833333333333333,0.714285714285714,14.4285714285714,0.454545454545454,20.1428571428571,0.461783439490446,31,3,0.428571428571429,0.333333333333333,FALSE,FALSE,4,3,TRUE,FALSE,TRUE
"313",42,"579de4e24d107800016dd926",6,1,-1,-1,TRUE,3793,"loss",0,43,1,0.857142857142857,1,1,15.2857142857143,0.48051948051948,21,0.480891719745223,32,4,0.5,0.416666666666667,FALSE,FALSE,6,4,TRUE,FALSE,TRUE
"314",43,"579de4e24d107800016dd926",2,1,-1,-1,FALSE,3409,"loss",0,44,5,0.285714285714286,0.666666666666667,0.428571428571429,15.5714285714286,0.489177489177489,21.2857142857143,0.487261146496815,33,5,0.571428571428571,0.5,FALSE,FALSE,2,5,FALSE,FALSE,TRUE
"315",44,"579de4e24d107800016dd926",5,1,1,1,TRUE,6937,"tie",0,45,2,0.714285714285714,0.916666666666667,0.857142857142857,16.2857142857143,0.510822510822511,22,0.503184713375796,34,6,0.642857142857143,0.583333333333333,TRUE,FALSE,5,6,TRUE,FALSE,FALSE
"316",45,"579de4e24d107800016dd926",5,-1,1,1,FALSE,4253,"win",0,46,2,-0.285714285714286,0.333333333333333,0.428571428571429,16,0.502164502164502,22.2857142857143,0.509554140127389,12,1,0.142857142857143,0.166666666666667,FALSE,FALSE,-5,-1,FALSE,FALSE,FALSE
"317",46,"579de4e24d107800016dd926",6,-1,1,1,FALSE,3770,"win",0,47,1,-0.142857142857143,0.416666666666667,0.285714285714286,15.8571428571429,0.497835497835498,22.4285714285714,0.512738853503185,13,2,0.0714285714285714,0.25,FALSE,FALSE,-6,-2,FALSE,FALSE,FALSE
"318",47,"579de4e24d107800016dd926",5,1,-1,-1,TRUE,5171,"loss",0,48,2,0.714285714285714,0.916666666666667,0.857142857142857,16.5714285714286,0.519480519480519,23.1428571428571,0.528662420382166,35,1,0.285714285714286,0.166666666666667,FALSE,FALSE,5,1,TRUE,FALSE,TRUE
"319",48,"579de4e24d107800016dd926",3,1,1,1,TRUE,3148,"tie",0,49,4,0.428571428571429,0.75,0.571428571428572,17,0.532467532467532,23.5714285714286,0.538216560509554,36,2,0.357142857142857,0.25,TRUE,FALSE,3,2,TRUE,FALSE,FALSE
"320",49,"579de4e24d107800016dd926",6,-1,-1,-1,FALSE,3911,"tie",0,50,1,-0.142857142857143,0.416666666666667,0.285714285714286,16.8571428571429,0.528138528138528,23.7142857142857,0.54140127388535,14,1,0.142857142857143,0.166666666666667,TRUE,FALSE,-6,-1,FALSE,FALSE,TRUE
"321",50,"579de4e24d107800016dd926",6,1,-1,-1,TRUE,3546,"loss",0,51,1,0.857142857142857,1,1,17.7142857142857,0.554112554112554,24.5714285714286,0.560509554140127,37,1,0.285714285714286,0.166666666666667,FALSE,FALSE,6,1,TRUE,FALSE,TRUE
"322",51,"579de4e24d107800016dd926",2,1,1,1,TRUE,3814,"tie",0,52,5,0.285714285714286,0.666666666666667,0.428571428571429,18,0.562770562770563,24.8571428571429,0.56687898089172,38,2,0.357142857142857,0.25,TRUE,FALSE,2,2,TRUE,FALSE,FALSE
"323",52,"579de4e24d107800016dd926",5,-1,-1,-1,FALSE,4394,"tie",0,53,2,-0.285714285714286,0.333333333333333,0.428571428571429,17.7142857142857,0.554112554112554,25.1428571428571,0.573248407643312,15,1,0.142857142857143,0.166666666666667,TRUE,FALSE,-5,-1,FALSE,FALSE,TRUE
"324",53,"579de4e24d107800016dd926",2,1,1,1,FALSE,3518,"tie",0,54,5,0.285714285714286,0.666666666666667,0.428571428571429,18,0.562770562770563,25.4285714285714,0.579617834394904,39,1,0.285714285714286,0.166666666666667,TRUE,FALSE,2,1,FALSE,FALSE,FALSE
"325",54,"579de4e24d107800016dd926",6,-1,-1,-1,FALSE,3460,"tie",0,55,1,-0.142857142857143,0.416666666666667,0.285714285714286,17.8571428571429,0.558441558441558,25.5714285714286,0.582802547770701,16,1,0.142857142857143,0.166666666666667,TRUE,FALSE,-6,-1,FALSE,FALSE,TRUE
"326",55,"579de4e24d107800016dd926",6,-1,-1,-1,FALSE,3202,"tie",0,56,1,-0.142857142857143,0.416666666666667,0.285714285714286,17.7142857142857,0.554112554112554,25.7142857142857,0.585987261146497,17,2,0.0714285714285714,0.25,TRUE,FALSE,-6,-2,FALSE,FALSE,TRUE
"327",56,"579de4e24d107800016dd926",4,1,-1,-1,TRUE,3260,"loss",0,57,3,0.571428571428571,0.833333333333333,0.714285714285714,18.2857142857143,0.571428571428571,26.2857142857143,0.598726114649682,40,1,0.285714285714286,0.166666666666667,FALSE,FALSE,4,1,TRUE,FALSE,TRUE
"328",57,"579de4e24d107800016dd926",6,1,-1,-1,TRUE,3745,"loss",0,58,1,0.857142857142857,1,1,19.1428571428571,0.597402597402597,27.1428571428571,0.617834394904459,41,2,0.357142857142857,0.25,FALSE,FALSE,6,2,TRUE,FALSE,TRUE
"329",58,"579de4e24d107800016dd926",5,1,1,1,TRUE,3505,"tie",0,59,2,0.714285714285714,0.916666666666667,0.857142857142857,19.8571428571429,0.619047619047619,27.8571428571429,0.63375796178344,42,3,0.428571428571429,0.333333333333333,TRUE,FALSE,5,3,TRUE,FALSE,FALSE
"330",59,"579de4e24d107800016dd926",4,1,-1,-1,FALSE,4627,"loss",0,60,3,0.571428571428571,0.833333333333333,0.714285714285714,20.4285714285714,0.636363636363636,28.4285714285714,0.646496815286624,43,4,0.5,0.416666666666667,FALSE,FALSE,4,4,FALSE,FALSE,TRUE
"331",60,"579de4e24d107800016dd926",5,-1,-1,-1,FALSE,3540,"tie",0,61,2,-0.285714285714286,0.333333333333333,0.428571428571429,20.1428571428571,0.627705627705628,28.7142857142857,0.652866242038217,18,1,0.142857142857143,0.166666666666667,TRUE,FALSE,-5,-1,FALSE,FALSE,TRUE
"332",61,"579de4e24d107800016dd926",4,1,1,1,FALSE,3240,"tie",0,62,3,0.571428571428571,0.833333333333333,0.714285714285714,20.7142857142857,0.645021645021645,29.2857142857143,0.665605095541401,44,1,0.285714285714286,0.166666666666667,TRUE,FALSE,4,1,FALSE,FALSE,FALSE
"333",62,"579de4e24d107800016dd926",3,1,-1,-1,FALSE,4495,"loss",0,63,4,0.428571428571429,0.75,0.571428571428572,21.1428571428571,0.658008658008658,29.7142857142857,0.67515923566879,45,2,0.357142857142857,0.25,FALSE,FALSE,3,2,FALSE,FALSE,TRUE
"334",63,"579de4e24d107800016dd926",4,-1,-1,-1,FALSE,4013,"tie",0,64,3,-0.428571428571429,0.25,0.571428571428572,20.7142857142857,0.645021645021645,30.1428571428571,0.684713375796178,19,1,0.142857142857143,0.166666666666667,TRUE,FALSE,-4,-1,FALSE,FALSE,TRUE
"335",64,"579de4e24d107800016dd926",2,1,1,1,FALSE,4363,"tie",0,65,5,0.285714285714286,0.666666666666667,0.428571428571429,21,0.653679653679654,30.4285714285714,0.691082802547771,46,1,0.285714285714286,0.166666666666667,TRUE,FALSE,2,1,FALSE,FALSE,FALSE
"336",65,"579de4e24d107800016dd926",1,-1,1,1,FALSE,4270,"win",0,66,6,-0.857142857142857,0,1,20.1428571428571,0.627705627705628,31.2857142857143,0.710191082802548,20,1,0.142857142857143,0.166666666666667,FALSE,FALSE,-1,-1,FALSE,FALSE,FALSE
"337",66,"579de4e24d107800016dd926",2,1,1,1,TRUE,4101,"tie",0,67,5,0.285714285714286,0.666666666666667,0.428571428571429,20.4285714285714,0.636363636363636,31.5714285714286,0.71656050955414,47,1,0.285714285714286,0.166666666666667,TRUE,FALSE,2,1,TRUE,FALSE,FALSE
"338",67,"579de4e24d107800016dd926",5,1,-1,-1,TRUE,3701,"loss",0,68,2,0.714285714285714,0.916666666666667,0.857142857142857,21.1428571428571,0.658008658008658,32.2857142857143,0.732484076433121,48,2,0.357142857142857,0.25,FALSE,FALSE,5,2,TRUE,FALSE,TRUE
"339",68,"579de4e24d107800016dd926",6,1,-1,-1,TRUE,3479,"loss",0,69,1,0.857142857142857,1,1,22,0.683982683982684,33.1428571428571,0.751592356687898,49,3,0.428571428571429,0.333333333333333,FALSE,FALSE,6,3,TRUE,FALSE,TRUE
"340",69,"579de4e24d107800016dd926",1,1,1,1,TRUE,4412,"tie",0,70,6,0.142857142857143,0.583333333333333,0.285714285714286,22.1428571428571,0.688311688311688,33.2857142857143,0.754777070063694,50,4,0.5,0.416666666666667,TRUE,FALSE,1,4,TRUE,FALSE,FALSE
"341",70,"579de4e24d107800016dd926",6,1,-1,-1,TRUE,4959,"loss",0.4,71,1,0.857142857142857,1,1,23,0.714285714285714,34.1428571428571,0.773885350318471,51,5,0.571428571428571,0.5,FALSE,FALSE,6,5,TRUE,FALSE,TRUE
"342",71,"579de4e24d107800016dd926",1,1,1,1,FALSE,3429,"tie",0,72,6,0.142857142857143,0.583333333333333,0.285714285714286,23.1428571428571,0.718614718614719,34.2857142857143,0.777070063694267,52,6,0.642857142857143,0.583333333333333,TRUE,FALSE,1,6,FALSE,FALSE,FALSE
"343",72,"579de4e24d107800016dd926",6,-1,-1,-1,FALSE,3161,"tie",0,73,1,-0.142857142857143,0.416666666666667,0.285714285714286,23,0.714285714285714,34.4285714285714,0.780254777070064,21,1,0.142857142857143,0.166666666666667,TRUE,FALSE,-6,-1,FALSE,FALSE,TRUE
"344",73,"579de4e24d107800016dd926",3,1,1,1,TRUE,4047,"tie",0,74,4,0.428571428571429,0.75,0.571428571428572,23.4285714285714,0.727272727272727,34.8571428571429,0.789808917197452,53,1,0.285714285714286,0.166666666666667,TRUE,FALSE,3,1,TRUE,FALSE,FALSE
"345",74,"579de4e24d107800016dd926",6,1,-1,-1,FALSE,29317,"loss",0,75,1,0.857142857142857,1,1,24.2857142857143,0.753246753246753,35.7142857142857,0.808917197452229,54,2,0.357142857142857,0.25,FALSE,FALSE,6,2,FALSE,FALSE,TRUE
"346",75,"579de4e24d107800016dd926",5,1,-1,-1,TRUE,6360,"loss",0,76,2,0.714285714285714,0.916666666666667,0.857142857142857,25,0.774891774891775,36.4285714285714,0.82484076433121,55,3,0.428571428571429,0.333333333333333,FALSE,FALSE,5,3,TRUE,FALSE,TRUE
"347",76,"579de4e24d107800016dd926",3,1,1,1,TRUE,3386,"tie",0,77,4,0.428571428571429,0.75,0.571428571428572,25.4285714285714,0.787878787878788,36.8571428571429,0.834394904458599,56,4,0.5,0.416666666666667,TRUE,FALSE,3,4,TRUE,FALSE,FALSE
"348",77,"579de4e24d107800016dd926",6,-1,-1,-1,FALSE,3766,"tie",0,78,1,-0.142857142857143,0.416666666666667,0.285714285714286,25.2857142857143,0.783549783549784,37,0.837579617834395,22,1,0.142857142857143,0.166666666666667,TRUE,FALSE,-6,-1,FALSE,FALSE,TRUE
"349",78,"579de4e24d107800016dd926",6,1,1,1,TRUE,5645,"tie",0.4,79,1,0.857142857142857,1,1,26.1428571428571,0.80952380952381,37.8571428571429,0.856687898089172,57,1,0.285714285714286,0.166666666666667,TRUE,FALSE,6,1,TRUE,FALSE,FALSE
"350",79,"579de4e24d107800016dd926",5,1,-1,-1,TRUE,4390,"loss",0.4,80,2,0.714285714285714,0.916666666666667,0.857142857142857,26.8571428571429,0.831168831168831,38.5714285714286,0.872611464968153,58,2,0.357142857142857,0.25,FALSE,FALSE,5,2,TRUE,FALSE,TRUE
"351",80,"579de4e24d107800016dd926",6,1,-1,-1,TRUE,5550,"loss",0.6,81,1,0.857142857142857,1,1,27.7142857142857,0.857142857142857,39.4285714285714,0.89171974522293,59,3,0.428571428571429,0.333333333333333,FALSE,FALSE,6,3,TRUE,FALSE,TRUE
"352",81,"579de4e24d107800016dd926",2,1,1,1,FALSE,3782,"tie",0.4,82,5,0.285714285714286,0.666666666666667,0.428571428571429,28,0.865800865800866,39.7142857142857,0.898089171974522,60,4,0.5,0.416666666666667,TRUE,FALSE,2,4,FALSE,FALSE,FALSE
"353",82,"579de4e24d107800016dd926",6,1,-1,1,TRUE,5550,"loss",0.4,83,1,0.857142857142857,1,1,28.8571428571429,0.891774891774892,40.5714285714286,0.917197452229299,61,5,0.571428571428571,0.5,TRUE,TRUE,6,5,TRUE,TRUE,FALSE
"354",83,"579de4e24d107800016dd926",2,1,-1,-1,FALSE,4210,"loss",0.4,84,5,0.285714285714286,0.666666666666667,0.428571428571429,29.1428571428571,0.900432900432901,40.8571428571428,0.923566878980892,62,6,0.642857142857143,0.583333333333333,FALSE,FALSE,2,6,FALSE,FALSE,TRUE
"355",84,"579de4e24d107800016dd926",6,1,-1,-1,TRUE,4736,"loss",0.2,85,1,0.857142857142857,1,1,30,0.926406926406927,41.7142857142857,0.942675159235669,63,7,0.714285714285714,0.666666666666667,FALSE,FALSE,6,7,TRUE,FALSE,TRUE
"356",85,"579de4e24d107800016dd926",5,1,-1,-1,TRUE,3458,"loss",0.2,86,2,0.714285714285714,0.916666666666667,0.857142857142857,30.7142857142857,0.948051948051948,42.4285714285714,0.95859872611465,64,8,0.785714285714286,0.75,FALSE,FALSE,5,8,TRUE,FALSE,TRUE
"357",86,"579de4e24d107800016dd926",1,1,1,1,FALSE,3196,"tie",0.2,87,6,0.142857142857143,0.583333333333333,0.285714285714286,30.8571428571429,0.952380952380953,42.5714285714286,0.961783439490446,65,9,0.857142857142857,0.833333333333333,TRUE,FALSE,1,9,FALSE,FALSE,FALSE
"358",87,"579de4e24d107800016dd926",6,1,-1,-1,FALSE,3329,"loss",0.6,88,1,0.857142857142857,1,1,31.7142857142857,0.978354978354979,43.4285714285714,0.980891719745223,66,10,0.928571428571429,0.916666666666667,FALSE,FALSE,6,10,FALSE,FALSE,TRUE
"359",88,"579de4e24d107800016dd926",5,1,-1,-1,TRUE,3667,"loss",0.2,89,2,0.714285714285714,0.916666666666667,0.857142857142857,32.4285714285714,1,44.1428571428571,0.996815286624204,67,11,1,1,FALSE,FALSE,5,11,TRUE,FALSE,TRUE
"360",89,"579de4e24d107800016dd926",6,-1,-1,-1,FALSE,4491,"tie",0.2,90,1,-0.142857142857143,0.416666666666667,0.285714285714286,32.2857142857143,0.995670995670996,44.2857142857143,1,23,1,0.142857142857143,0.166666666666667,TRUE,FALSE,-6,-1,FALSE,FALSE,TRUE
"361",0,"57d4520b49d04a000105ee31",6,-1,-1,-1,FALSE,4592,"tie",0.6,1,1,-0.142857142857143,0.363636363636364,0.285714285714286,-0.142857142857143,0,0.142857142857143,0.0060790273556231,1,1,0.117647058823529,0.133333333333333,TRUE,FALSE,-6,-1,FALSE,FALSE,TRUE
"362",1,"57d4520b49d04a000105ee31",2,1,1,1,TRUE,3431,"tie",0.6,2,5,0.285714285714286,0.636363636363636,0.428571428571429,0.142857142857143,0.00881057268722467,0.428571428571429,0.0121580547112462,1,1,0.235294117647059,0.133333333333333,TRUE,FALSE,2,1,TRUE,FALSE,FALSE
"363",2,"57d4520b49d04a000105ee31",1,1,1,1,FALSE,3260,"tie",0.8,3,6,0.142857142857143,0.545454545454545,0.285714285714286,0.285714285714286,0.013215859030837,0.571428571428572,0.0151975683890578,2,2,0.294117647058824,0.2,TRUE,FALSE,1,2,FALSE,FALSE,FALSE
"364",3,"57d4520b49d04a000105ee31",2,1,1,1,TRUE,3906,"tie",0.8,4,5,0.285714285714286,0.636363636363636,0.428571428571429,0.571428571428571,0.0220264317180617,0.857142857142857,0.0212765957446808,3,3,0.352941176470588,0.266666666666667,TRUE,FALSE,2,3,TRUE,FALSE,FALSE
"365",4,"57d4520b49d04a000105ee31",4,1,1,-1,TRUE,3057,"tie",0.8,5,3,0.571428571428571,0.818181818181818,0.714285714285714,1.14285714285714,0.039647577092511,1.42857142857143,0.033434650455927,4,4,0.411764705882353,0.333333333333333,FALSE,TRUE,4,4,TRUE,TRUE,TRUE
"366",5,"57d4520b49d04a000105ee31",2,-1,1,-1,TRUE,4554,"win",0.6,6,5,-0.714285714285714,0,0.857142857142857,0.428571428571428,0.0176211453744493,2.14285714285714,0.0486322188449848,2,1,0.117647058823529,0.133333333333333,TRUE,TRUE,-2,-1,TRUE,TRUE,TRUE
"367",6,"57d4520b49d04a000105ee31",6,1,-1,1,FALSE,4363,"loss",0.4,7,1,0.857142857142857,1,1,1.28571428571429,0.0440528634361233,3,0.0668693009118541,5,1,0.235294117647059,0.133333333333333,TRUE,TRUE,6,1,FALSE,TRUE,FALSE
"368",7,"57d4520b49d04a000105ee31",2,1,1,1,FALSE,3318,"tie",0.6,8,5,0.285714285714286,0.636363636363636,0.428571428571429,1.57142857142857,0.052863436123348,3.28571428571429,0.0729483282674772,6,2,0.294117647058824,0.2,TRUE,FALSE,2,2,FALSE,FALSE,FALSE
"369",8,"57d4520b49d04a000105ee31",5,-1,-1,-1,FALSE,4248,"tie",1,9,2,-0.285714285714286,0.272727272727273,0.428571428571429,1.28571428571429,0.0440528634361233,3.57142857142857,0.0790273556231003,3,1,0.117647058823529,0.133333333333333,TRUE,FALSE,-5,-1,FALSE,FALSE,TRUE
"370",9,"57d4520b49d04a000105ee31",5,-1,-1,-1,FALSE,4114,"tie",1,10,2,-0.285714285714286,0.272727272727273,0.428571428571429,1,0.0352422907488987,3.85714285714286,0.0851063829787234,4,2,0.0588235294117647,0.2,TRUE,FALSE,-5,-2,FALSE,FALSE,TRUE
"371",10,"57d4520b49d04a000105ee31",2,1,1,1,FALSE,5261,"tie",1,11,5,0.285714285714286,0.636363636363636,0.428571428571429,1.28571428571429,0.0440528634361233,4.14285714285714,0.0911854103343465,7,1,0.235294117647059,0.133333333333333,TRUE,FALSE,2,1,FALSE,FALSE,FALSE
"372",11,"57d4520b49d04a000105ee31",4,-1,1,-1,FALSE,3779,"win",0.4,12,3,-0.428571428571429,0.181818181818182,0.571428571428572,0.857142857142857,0.0308370044052863,4.57142857142857,0.100303951367781,5,1,0.117647058823529,0.133333333333333,TRUE,TRUE,-4,-1,FALSE,TRUE,TRUE
"373",12,"57d4520b49d04a000105ee31",5,-1,1,-1,FALSE,3310,"win",0.4,13,2,-0.285714285714286,0.272727272727273,0.428571428571429,0.571428571428571,0.0220264317180617,4.85714285714286,0.106382978723404,6,2,0.0588235294117647,0.2,TRUE,TRUE,-5,-2,FALSE,TRUE,TRUE
"374",13,"57d4520b49d04a000105ee31",6,-1,1,-1,FALSE,5578,"win",0.2,14,1,-0.142857142857143,0.363636363636364,0.285714285714286,0.428571428571428,0.0176211453744493,5,0.109422492401216,7,3,0,0.266666666666667,TRUE,TRUE,-6,-3,FALSE,TRUE,TRUE
"375",14,"57d4520b49d04a000105ee31",5,1,1,-1,TRUE,3157,"tie",0.6,15,2,0.714285714285714,0.909090909090909,0.857142857142857,1.14285714285714,0.039647577092511,5.71428571428571,0.124620060790274,8,1,0.235294117647059,0.133333333333333,FALSE,TRUE,5,1,TRUE,TRUE,TRUE
"376",15,"57d4520b49d04a000105ee31",6,-1,-1,1,FALSE,3555,"tie",1,16,1,-0.142857142857143,0.363636363636364,0.285714285714286,1,0.0352422907488987,5.85714285714286,0.127659574468085,8,1,0.117647058823529,0.133333333333333,FALSE,TRUE,-6,-1,FALSE,TRUE,FALSE
"377",16,"57d4520b49d04a000105ee31",1,1,-1,-1,FALSE,4359,"loss",0.8,17,6,0.142857142857143,0.545454545454545,0.285714285714286,1.14285714285714,0.039647577092511,6,0.130699088145897,9,1,0.235294117647059,0.133333333333333,FALSE,FALSE,1,1,FALSE,FALSE,TRUE
"378",17,"57d4520b49d04a000105ee31",5,-1,1,-1,TRUE,3963,"win",0.4,18,2,-0.285714285714286,0.272727272727273,0.428571428571429,0.857142857142857,0.0308370044052863,6.28571428571429,0.13677811550152,9,1,0.117647058823529,0.133333333333333,TRUE,TRUE,-5,-1,TRUE,TRUE,TRUE
"379",18,"57d4520b49d04a000105ee31",5,1,1,-1,FALSE,3097,"tie",0.6,19,2,0.714285714285714,0.909090909090909,0.857142857142857,1.57142857142857,0.052863436123348,7,0.151975683890578,10,1,0.235294117647059,0.133333333333333,FALSE,TRUE,5,1,FALSE,TRUE,TRUE
"380",19,"57d4520b49d04a000105ee31",1,1,1,1,FALSE,3909,"tie",0.8,20,6,0.142857142857143,0.545454545454545,0.285714285714286,1.71428571428571,0.0572687224669603,7.14285714285714,0.155015197568389,11,2,0.294117647058824,0.2,TRUE,FALSE,1,2,FALSE,FALSE,FALSE
"381",20,"57d4520b49d04a000105ee31",5,-1,-1,-1,FALSE,3584,"tie",0.6,21,2,-0.285714285714286,0.272727272727273,0.428571428571429,1.42857142857143,0.0484581497797357,7.42857142857143,0.161094224924012,10,1,0.117647058823529,0.133333333333333,TRUE,FALSE,-5,-1,FALSE,FALSE,TRUE
"382",21,"57d4520b49d04a000105ee31",3,-1,-1,1,TRUE,3889,"tie",0.6,22,4,-0.571428571428571,0.0909090909090909,0.714285714285714,0.857142857142857,0.0308370044052863,8,0.173252279635258,11,2,0.0588235294117647,0.2,FALSE,TRUE,-3,-2,TRUE,TRUE,FALSE
"383",22,"57d4520b49d04a000105ee31",6,1,1,1,TRUE,4157,"tie",1,23,1,0.857142857142857,1,1,1.71428571428571,0.0572687224669603,8.85714285714286,0.191489361702128,12,1,0.235294117647059,0.133333333333333,TRUE,FALSE,6,1,TRUE,FALSE,FALSE
"384",23,"57d4520b49d04a000105ee31",6,1,-1,-1,TRUE,3758,"loss",0.6,24,1,0.857142857142857,1,1,2.57142857142857,0.0837004405286343,9.71428571428572,0.209726443768997,13,2,0.294117647058824,0.2,FALSE,FALSE,6,2,TRUE,FALSE,TRUE
"385",24,"57d4520b49d04a000105ee31",6,-1,-1,-1,FALSE,3547,"tie",0.8,25,1,-0.142857142857143,0.363636363636364,0.285714285714286,2.42857142857143,0.079295154185022,9.85714285714286,0.212765957446809,12,1,0.117647058823529,0.133333333333333,TRUE,FALSE,-6,-1,FALSE,FALSE,TRUE
"386",25,"57d4520b49d04a000105ee31",6,1,-1,-1,TRUE,4888,"loss",1,26,1,0.857142857142857,1,1,3.28571428571429,0.105726872246696,10.7142857142857,0.231003039513678,14,1,0.235294117647059,0.133333333333333,FALSE,FALSE,6,1,TRUE,FALSE,TRUE
"387",26,"57d4520b49d04a000105ee31",5,1,-1,-1,TRUE,6753,"loss",1,27,2,0.714285714285714,0.909090909090909,0.857142857142857,4,0.127753303964758,11.4285714285714,0.246200607902736,15,2,0.294117647058824,0.2,FALSE,FALSE,5,2,TRUE,FALSE,TRUE
"388",27,"57d4520b49d04a000105ee31",5,1,-1,-1,TRUE,3711,"loss",1,28,2,0.714285714285714,0.909090909090909,0.857142857142857,4.71428571428572,0.149779735682819,12.1428571428571,0.261398176291793,16,3,0.352941176470588,0.266666666666667,FALSE,FALSE,5,3,TRUE,FALSE,TRUE
"389",28,"57d4520b49d04a000105ee31",6,1,-1,-1,TRUE,4161,"loss",1,29,1,0.857142857142857,1,1,5.57142857142857,0.176211453744493,13,0.279635258358663,17,4,0.411764705882353,0.333333333333333,FALSE,FALSE,6,4,TRUE,FALSE,TRUE
"390",29,"57d4520b49d04a000105ee31",3,1,-1,-1,TRUE,4247,"loss",1,30,4,0.428571428571429,0.727272727272727,0.571428571428572,6,0.18942731277533,13.4285714285714,0.288753799392097,18,5,0.470588235294118,0.4,FALSE,FALSE,3,5,TRUE,FALSE,TRUE
"391",30,"57d4520b49d04a000105ee31",6,1,1,-1,FALSE,4035,"tie",0.6,31,1,0.857142857142857,1,1,6.85714285714286,0.215859030837004,14.2857142857143,0.306990881458967,19,6,0.529411764705882,0.466666666666667,FALSE,TRUE,6,6,FALSE,TRUE,TRUE
"392",31,"57d4520b49d04a000105ee31",1,1,1,-1,FALSE,3189,"tie",0.6,32,6,0.142857142857143,0.545454545454545,0.285714285714286,7,0.220264317180617,14.4285714285714,0.310030395136778,20,7,0.588235294117647,0.533333333333333,FALSE,TRUE,1,7,FALSE,TRUE,TRUE
"393",32,"57d4520b49d04a000105ee31",5,1,1,-1,TRUE,3730,"tie",0.6,33,2,0.714285714285714,0.909090909090909,0.857142857142857,7.71428571428572,0.242290748898678,15.1428571428571,0.325227963525836,21,8,0.647058823529412,0.6,FALSE,TRUE,5,8,TRUE,TRUE,TRUE
"394",33,"57d4520b49d04a000105ee31",6,1,1,-1,TRUE,3224,"tie",0.6,34,1,0.857142857142857,1,1,8.57142857142857,0.268722466960352,16,0.343465045592705,22,9,0.705882352941177,0.666666666666667,FALSE,TRUE,6,9,TRUE,TRUE,TRUE
"395",34,"57d4520b49d04a000105ee31",6,1,1,-1,TRUE,3362,"tie",0.6,35,1,0.857142857142857,1,1,9.42857142857143,0.295154185022026,16.8571428571429,0.361702127659574,23,10,0.764705882352941,0.733333333333333,FALSE,TRUE,6,10,TRUE,TRUE,TRUE
"396",35,"57d4520b49d04a000105ee31",4,1,1,-1,FALSE,3600,"tie",0.6,36,3,0.571428571428571,0.818181818181818,0.714285714285714,10,0.312775330396476,17.4285714285714,0.373860182370821,24,11,0.823529411764706,0.8,FALSE,TRUE,4,11,FALSE,TRUE,TRUE
"397",36,"57d4520b49d04a000105ee31",5,1,1,-1,FALSE,3795,"tie",0.6,37,2,0.714285714285714,0.909090909090909,0.857142857142857,10.7142857142857,0.334801762114537,18.1428571428571,0.389057750759878,25,12,0.882352941176471,0.866666666666667,FALSE,TRUE,5,12,FALSE,TRUE,TRUE
"398",37,"57d4520b49d04a000105ee31",4,-1,1,-1,FALSE,3323,"win",0.4,38,3,-0.428571428571429,0.181818181818182,0.571428571428572,10.2857142857143,0.3215859030837,18.5714285714286,0.398176291793313,13,1,0.117647058823529,0.133333333333333,TRUE,TRUE,-4,-1,FALSE,TRUE,TRUE
"399",38,"57d4520b49d04a000105ee31",6,-1,1,-1,FALSE,3287,"win",0.4,39,1,-0.142857142857143,0.363636363636364,0.285714285714286,10.1428571428571,0.317180616740088,18.7142857142857,0.401215805471125,14,2,0.0588235294117647,0.2,TRUE,TRUE,-6,-2,FALSE,TRUE,TRUE
"400",39,"57d4520b49d04a000105ee31",3,1,-1,1,TRUE,4188,"loss",0.6,40,4,0.428571428571429,0.727272727272727,0.571428571428572,10.5714285714286,0.330396475770925,19.1428571428571,0.410334346504559,26,1,0.235294117647059,0.133333333333333,TRUE,TRUE,3,1,TRUE,TRUE,FALSE
"401",40,"57d4520b49d04a000105ee31",6,1,1,-1,TRUE,2748,"tie",0.6,41,1,0.857142857142857,1,1,11.4285714285714,0.356828193832599,20,0.428571428571428,27,2,0.294117647058824,0.2,FALSE,TRUE,6,2,TRUE,TRUE,TRUE
